*RAS_DATA_START
*RAS_HEADER_START
*CORR_POS_DB_NAME "C_DteX_ASC-6_15122015"
*CORR_POS_GONIO_RADIUS ""
*CORR_POS_NODE_INDEX01 ""
*CORR_POS_NODE_INDEX02 ""
*CORR_POS_NODE_INDEX03 ""
*CORR_POS_NODE_INDEX04 ""
*CORR_POS_NODE_INDEX05 ""
*CORR_POS_NODE_INDEX06 ""
*CORR_POS_NODE_INDEX07 ""
*CORR_POS_NODE_INDEX08 ""
*CORR_POS_NODE_INDEX09 ""
*CORR_POS_NODE_INDEX10 ""
*CORR_POS_NODE_INDEX11 ""
*CORR_POS_NODE_LABEL01 "Si(111)"
*CORR_POS_NODE_LABEL02 "Si(220)"
*CORR_POS_NODE_LABEL03 "Si(311)"
*CORR_POS_NODE_LABEL04 "Si(400)"
*CORR_POS_NODE_LABEL05 "Si(331)"
*CORR_POS_NODE_LABEL06 "Si(422)"
*CORR_POS_NODE_LABEL07 "Si(511)"
*CORR_POS_NODE_LABEL08 "Si(440)"
*CORR_POS_NODE_LABEL09 "Si(531)"
*CORR_POS_NODE_LABEL10 "Si(620)"
*CORR_POS_NODE_LABEL11 "Si(533)"
*CORR_POS_NODE_POS_CALC01 "28.4137"
*CORR_POS_NODE_POS_CALC02 "47.2707"
*CORR_POS_NODE_POS_CALC03 "56.0883"
*CORR_POS_NODE_POS_CALC04 "69.0934"
*CORR_POS_NODE_POS_CALC05 "76.3385"
*CORR_POS_NODE_POS_CALC06 "87.9915"
*CORR_POS_NODE_POS_CALC07 "94.9137"
*CORR_POS_NODE_POS_CALC08 "106.67"
*CORR_POS_NODE_POS_CALC09 "114.054"
*CORR_POS_NODE_POS_CALC10 "127.508"
*CORR_POS_NODE_POS_CALC11 "136.858"
*CORR_POS_NODE_POS_MEAS01 "28.4844"
*CORR_POS_NODE_POS_MEAS02 "47.3386"
*CORR_POS_NODE_POS_MEAS03 "56.1592"
*CORR_POS_NODE_POS_MEAS04 "69.1708"
*CORR_POS_NODE_POS_MEAS05 "76.4167"
*CORR_POS_NODE_POS_MEAS06 "88.0714"
*CORR_POS_NODE_POS_MEAS07 "94.9948"
*CORR_POS_NODE_POS_MEAS08 "106.756"
*CORR_POS_NODE_POS_MEAS09 "114.134"
*CORR_POS_NODE_POS_MEAS10 "127.59"
*CORR_POS_NODE_POS_MEAS11 "136.946"
*CORR_POS_OPT_ATTR "集中法"
*CORR_POS_PARAM_MU ""
*CORR_POS_PARAM_PL ""
*CORR_POS_SEMODEL_TYPE "0"
*CORR_POS_STANDARD_TYPE ""
*CORR_POS_VALUE_ANALYZER "None"
*CORR_POS_VALUE_CMONO "None"
*CORR_POS_VALUE_IMONO "None"
*CORR_POS_VALUE_IS "0.625deg"
*CORR_POS_VALUE_ISL "10.0mm"
*CORR_POS_VALUE_ISOLLER "2.5deg"
*CORR_POS_VALUE_RS1 "13.0mm"
*CORR_POS_VALUE_RS2 "13.0mm"
*CORR_POS_VALUE_RSOLLER "2.5deg"
*CORR_POS_XG_FOCUS_L ""
*CORR_POS_XG_WAVE_TYPE ""
*CORR_POS_XG_WAVE_VALUE ""
*DISP_FMT_X "%.2f"
*DISP_FMT_Y "%.0f"
*DISP_FULLSCALE "31120.0000000000"
*DISP_LINE_COLOR "255.0000000000"
*DISP_LINE_STYLE "0.0000000000"
*DISP_LINE_WIDTH "0.2500000000"
*DISP_NOTE "Collected Data-3"
*DISP_OFFSET_Y "0.0000000000"
*DISP_PEAKSEARCH_UNIT_Y "cps"
*DISP_RANGE_BOTTOM "0.0000000000"
*DISP_RANGE_LEFT "5.0000000000"
*DISP_RANGE_LOGCUTOFF "0.0100000000"
*DISP_RANGE_RIGHT "90.0000000000"
*DISP_RANGE_TOP "31120.0000000000"
*DISP_SCALE_MODE_Y "0.0000000000"
*DISP_TAB_NAME "Theta/2-Theta"
*DISP_TITLE_Y "Intensity"
*DISP_UNIT_Y "cps"
*DISP_WINDOW_NAME "MSG_MACROENGINE"
*FILE_COMMENT " "
*FILE_MD5 ""
*FILE_MEMO " "
*FILE_OPERATOR "RIGAKU"
*FILE_SAMPLE "ZnOFeCl3"
*FILE_TYPE "RAS_RAW"
*FILE_USERGROUP "System Manager"
*FILE_VERSION "1.0000000000"
*HW_ATTACHMENT_ID "ATT1031"
*HW_ATTACHMENT_NAME "6サンプルチェンジャ|ASC-6"
*HW_COUNTER_ID-0 "CUT0025"
*HW_COUNTER_ID-1 "CUT0020"
*HW_COUNTER_ID-2 "CUT0020"
*HW_COUNTER_ID-3 "CMC0021"
*HW_COUNTER_NAME-0 "D/teX Ultra|D/teX Ultra"
*HW_COUNTER_NAME-1 "None|None"
*HW_COUNTER_NAME-2 "None|None"
*HW_COUNTER_NAME-3 "検出器モノクロメータ|Detector monochromator"
*HW_COUNTER_SELECT_NAME "D/teX Ultra|D/teX Ultra"
*HW_GONIOMETER_ID "GON0070"
*HW_GONIOMETER_NAME "MiniFlex 300/600|MiniFlex 300/600"
*HW_GONIOMETER_RADIUS-0 "79.0"
*HW_GONIOMETER_RADIUS-1 "91.5"
*HW_GONIOMETER_RADIUS-2 "150.0"
*HW_GONIOMETER_RADIUS-3 "0"
*HW_GONIOMETER_RADIUS-4 "103.4"
*HW_GONIOMETER_RADIUS-5 "150.0"
*HW_GONIOMETER_RADIUS-6 "46.6"
*HW_GONIOMETER_RADIUS-7 "160.0"
*HW_I_OPT_ID-0 "ISL0021"
*HW_I_OPT_ID-1 "ISO0021"
*HW_I_OPT_NAME-0 "発散スリット|Divergence slit"
*HW_I_OPT_NAME-1 "入射平行スリット|Incident parallel slit"
*HW_R_ATTENUATER_AUTOMODE "0"
*HW_R_OPT_ID-0 "RSS0021"
*HW_R_OPT_ID-1 "RSO0021"
*HW_R_OPT_ID-2 "RRS0021"
*HW_R_OPT_NAME-0 "散乱スリット|Scattering slit"
*HW_R_OPT_NAME-1 "受光平行スリット|Receiving soller slit"
*HW_R_OPT_NAME-2 "受光スリット|Receiving slit"
*HW_SAMPLE_HOLDER_ID "SMP0000"
*HW_SAMPLE_HOLDER_NAME "無し|None"
*HW_XG_CURRENT_MAX "15"
*HW_XG_CURRENT_MIN "2"
*HW_XG_CURRENT_RESOLUTION "1"
*HW_XG_CURRENT_UNIT "mA"
*HW_XG_FOCUS "1mm x 10mm"
*HW_XG_FOCUS_TYPE "Normal"
*HW_XG_ID ""
*HW_XG_NAME "300W/600W 封入管-B|300W/600W Sealed tube-B"
*HW_XG_TARGET_ATOMIC_NUMBER "29.0000000000"
*HW_XG_TARGET_NAME "Cu"
*HW_XG_TYPE "Hermetic"
*HW_XG_VOLTAGE_MAX "40"
*HW_XG_VOLTAGE_MIN "20"
*HW_XG_VOLTAGE_RESOLUTION "1"
*HW_XG_VOLTAGE_UNIT "kV"
*HW_XG_WATT_MAX "0.600"
*HW_XG_WATT_UNIT "kW"
*HW_XG_WAVE_LENGTH_ALPHA1 "1.540593"
*HW_XG_WAVE_LENGTH_ALPHA2 "1.544414"
*HW_XG_WAVE_LENGTH_BETA "1.392250"
*MEAS_COND_AXIS_NAME-0 "Theta/2-Theta"
*MEAS_COND_AXIS_NAME-1 "Spin"
*MEAS_COND_AXIS_NAME-2 "Change"
*MEAS_COND_AXIS_NAME-3 "Soller(inc.)"
*MEAS_COND_AXIS_NAME-4 "IHS"
*MEAS_COND_AXIS_NAME-5 "DS"
*MEAS_COND_AXIS_NAME-6 "SS"
*MEAS_COND_AXIS_NAME-7 "Soller(rec.)"
*MEAS_COND_AXIS_NAME-8 "RS"
*MEAS_COND_AXIS_NAME-9 "Filter"
*MEAS_COND_AXIS_NAME-10 "Monochromator"
*MEAS_COND_AXIS_NAME-11 "PHA"
*MEAS_COND_AXIS_NAME_INTERNAL-0 "TwoThetaTheta"
*MEAS_COND_AXIS_NAME_INTERNAL-1 "Spin"
*MEAS_COND_AXIS_NAME_INTERNAL-2 "Change"
*MEAS_COND_AXIS_NAME_INTERNAL-3 "IncidentSollerSlit"
*MEAS_COND_AXIS_NAME_INTERNAL-4 "IncidentAxdSlit"
*MEAS_COND_AXIS_NAME_INTERNAL-5 "IncidentSlitBox"
*MEAS_COND_AXIS_NAME_INTERNAL-6 "ReceivingSlitBox1"
*MEAS_COND_AXIS_NAME_INTERNAL-7 "ReceivingSollerSlit"
*MEAS_COND_AXIS_NAME_INTERNAL-8 "ReceivingSlitBox2"
*MEAS_COND_AXIS_NAME_INTERNAL-9 "Filter"
*MEAS_COND_AXIS_NAME_INTERNAL-10 "CounterMonochromator"
*MEAS_COND_AXIS_NAME_INTERNAL-11 "PHA"
*MEAS_COND_AXIS_NAME_MAGICNO-0 "268632064.0000000000"
*MEAS_COND_AXIS_NAME_MAGICNO-1 "16842752.0000000000"
*MEAS_COND_AXIS_NAME_MAGICNO-2 "16842752.0000000000"
*MEAS_COND_AXIS_NAME_MAGICNO-3 "20971521.0000000000"
*MEAS_COND_AXIS_NAME_MAGICNO-4 "22020097.0000000000"
*MEAS_COND_AXIS_NAME_MAGICNO-5 "22020097.0000000000"
*MEAS_COND_AXIS_NAME_MAGICNO-6 "23068673.0000000000"
*MEAS_COND_AXIS_NAME_MAGICNO-7 "20971521.0000000000"
*MEAS_COND_AXIS_NAME_MAGICNO-8 "23068673.0000000000"
*MEAS_COND_AXIS_NAME_MAGICNO-9 "20971521.0000000000"
*MEAS_COND_AXIS_NAME_MAGICNO-10 "20971521.0000000000"
*MEAS_COND_AXIS_NAME_MAGICNO-11 "0.0000000000"
*MEAS_COND_AXIS_OFFSET-0 "0.0000000000"
*MEAS_COND_AXIS_OFFSET-1 "-"
*MEAS_COND_AXIS_OFFSET-2 "-"
*MEAS_COND_AXIS_OFFSET-3 "-"
*MEAS_COND_AXIS_OFFSET-4 "-"
*MEAS_COND_AXIS_OFFSET-5 "-"
*MEAS_COND_AXIS_OFFSET-6 "-"
*MEAS_COND_AXIS_OFFSET-7 "-"
*MEAS_COND_AXIS_OFFSET-8 "-"
*MEAS_COND_AXIS_OFFSET-9 "-"
*MEAS_COND_AXIS_OFFSET-10 "-"
*MEAS_COND_AXIS_OFFSET-11 "-"
*MEAS_COND_AXIS_POSITION-0 "92.4250000000"
*MEAS_COND_AXIS_POSITION-1 "0.0000000000"
*MEAS_COND_AXIS_POSITION-2 "4.0000000000"
*MEAS_COND_AXIS_POSITION-3 "2.5deg"
*MEAS_COND_AXIS_POSITION-4 "10.0mm"
*MEAS_COND_AXIS_POSITION-5 "0.625deg"
*MEAS_COND_AXIS_POSITION-6 "13.0mm"
*MEAS_COND_AXIS_POSITION-7 "2.5deg"
*MEAS_COND_AXIS_POSITION-8 "13.0mm"
*MEAS_COND_AXIS_POSITION-9 "K-beta(x2)"
*MEAS_COND_AXIS_POSITION-10 "None"
*MEAS_COND_AXIS_POSITION-11 "40.0000000000"
*MEAS_COND_AXIS_UNIT-0 "deg"
*MEAS_COND_AXIS_UNIT-1 ""
*MEAS_COND_AXIS_UNIT-2 ""
*MEAS_COND_AXIS_UNIT-3 ""
*MEAS_COND_AXIS_UNIT-4 ""
*MEAS_COND_AXIS_UNIT-5 ""
*MEAS_COND_AXIS_UNIT-6 ""
*MEAS_COND_AXIS_UNIT-7 ""
*MEAS_COND_AXIS_UNIT-8 ""
*MEAS_COND_AXIS_UNIT-9 ""
*MEAS_COND_AXIS_UNIT-10 ""
*MEAS_COND_AXIS_UNIT-11 "div"
*MEAS_COND_CORRECTION_SLIT_COUNTERMONO "None"
*MEAS_COND_CORRECTION_SLIT_DS "0.625deg"
*MEAS_COND_CORRECTION_SLIT_FILTER "None"
*MEAS_COND_CORRECTION_SLIT_IHS "10.0mm"
*MEAS_COND_CORRECTION_SLIT_RS "13.0mm"
*MEAS_COND_CORRECTION_SLIT_SOLLER_INC "2.5deg"
*MEAS_COND_CORRECTION_SLIT_SOLLER_REC "2.5deg"
*MEAS_COND_CORRECTION_SLIT_SS "13.0mm"
*MEAS_COND_COUNTER_CNTLOSS_CORR "0.0000000000"
*MEAS_COND_COUNTER_PHABASE "40.0000000000"
*MEAS_COND_COUNTER_PHAWINDOW "15.0000000000"
*MEAS_COND_COUNTER_PHA_UNIT "div"
*MEAS_COND_COUNTER_TAUDIFF "0.2500000000"
*MEAS_COND_COUNTER_TAUINT "0.7500000000"
*MEAS_COND_IRRADIATION_MODE "OFF"
*MEAS_COND_IRRADIATION_WIDTH ""
*MEAS_COND_OPT_ATTR " "
*MEAS_COND_OPT_NAME ""
*MEAS_COND_UNSYMMETRIC_MODE "OFF"
*MEAS_COND_XG_CURRENT "15.0000000000"
*MEAS_COND_XG_VOLTAGE "40.0000000000"
*MEAS_COND_XG_WAVE_TYPE "Ka"
*MEAS_DATA_COUNT "4251.0000000000"
*MEAS_SCAN_AXIS_X "Theta/2-Theta"
*MEAS_SCAN_AXIS_X_INTERNAL "TwoThetaTheta"
*MEAS_SCAN_END_TIME "03/03/17 15:55:16"
*MEAS_SCAN_MODE "CONTINUOUS"
*MEAS_SCAN_MONITOR "0"
*MEAS_SCAN_RESOLUTION_X "0.005"
*MEAS_SCAN_SPEED "5.000"
*MEAS_SCAN_SPEED_UNIT "deg/min"
*MEAS_SCAN_START "5.0000000000"
*MEAS_SCAN_START_TIME "03/03/17 15:36:50"
*MEAS_SCAN_STEP "0.0200000000"
*MEAS_SCAN_STOP "90.0000000000"
*MEAS_SCAN_UNIT_X "deg"
*MEAS_SCAN_UNIT_Y "counts"
*SLIT_SYSTEM "0"
*RAS_HEADER_END
*RAS_INT_START
5.000 1410.000 1.000
5.020 1380.000 1.000
5.040 1347.000 1.000
5.060 1319.000 1.000
5.080 1299.000 1.000
5.100 1358.000 1.000
5.120 1373.000 1.000
5.140 1328.000 1.000
5.160 1312.000 1.000
5.180 1321.000 1.000
5.200 1361.000 1.000
5.220 1363.000 1.000
5.240 1351.000 1.000
5.260 1294.000 1.000
5.280 1309.000 1.000
5.300 1332.000 1.000
5.320 1329.000 1.000
5.340 1311.000 1.000
5.360 1317.000 1.000
5.380 1371.000 1.000
5.400 1378.000 1.000
5.420 1292.000 1.000
5.440 1289.000 1.000
5.460 1361.000 1.000
5.480 1365.000 1.000
5.500 1353.000 1.000
5.520 1345.000 1.000
5.540 1357.000 1.000
5.560 1317.000 1.000
5.580 1283.000 1.000
5.600 1316.000 1.000
5.620 1322.000 1.000
5.640 1341.000 1.000
5.660 1298.000 1.000
5.680 1297.000 1.000
5.700 1317.000 1.000
5.720 1226.000 1.000
5.740 1204.000 1.000
5.760 1261.000 1.000
5.780 1278.000 1.000
5.800 1314.000 1.000
5.820 1320.000 1.000
5.840 1306.000 1.000
5.860 1366.000 1.000
5.880 1347.000 1.000
5.900 1309.000 1.000
5.920 1306.000 1.000
5.940 1297.000 1.000
5.960 1296.000 1.000
5.980 1294.000 1.000
6.000 1304.000 1.000
6.020 1247.000 1.000
6.040 1234.000 1.000
6.060 1296.000 1.000
6.080 1293.000 1.000
6.100 1278.000 1.000
6.120 1273.000 1.000
6.140 1284.000 1.000
6.160 1299.000 1.000
6.180 1310.000 1.000
6.200 1304.000 1.000
6.220 1311.000 1.000
6.240 1354.000 1.000
6.260 1346.000 1.000
6.280 1319.000 1.000
6.300 1291.000 1.000
6.320 1311.000 1.000
6.340 1330.000 1.000
6.360 1349.000 1.000
6.380 1320.000 1.000
6.400 1271.000 1.000
6.420 1277.000 1.000
6.440 1293.000 1.000
6.460 1308.000 1.000
6.480 1267.000 1.000
6.500 1253.000 1.000
6.520 1253.000 1.000
6.540 1245.000 1.000
6.560 1257.000 1.000
6.580 1303.000 1.000
6.600 1278.000 1.000
6.620 1281.000 1.000
6.640 1318.000 1.000
6.660 1303.000 1.000
6.680 1275.000 1.000
6.700 1293.000 1.000
6.720 1320.000 1.000
6.740 1283.000 1.000
6.760 1285.000 1.000
6.780 1325.000 1.000
6.800 1340.000 1.000
6.820 1349.000 1.000
6.840 1324.000 1.000
6.860 1333.000 1.000
6.880 1315.000 1.000
6.900 1290.000 1.000
6.920 1275.000 1.000
6.940 1282.000 1.000
6.960 1283.000 1.000
6.980 1263.000 1.000
7.000 1300.000 1.000
7.020 1253.000 1.000
7.040 1247.000 1.000
7.060 1285.000 1.000
7.080 1313.000 1.000
7.100 1323.000 1.000
7.120 1265.000 1.000
7.140 1268.000 1.000
7.160 1319.000 1.000
7.180 1271.000 1.000
7.200 1252.000 1.000
7.220 1277.000 1.000
7.240 1321.000 1.000
7.260 1276.000 1.000
7.280 1283.000 1.000
7.300 1315.000 1.000
7.320 1310.000 1.000
7.340 1288.000 1.000
7.360 1338.000 1.000
7.380 1362.000 1.000
7.400 1292.000 1.000
7.420 1249.000 1.000
7.440 1262.000 1.000
7.460 1287.000 1.000
7.480 1315.000 1.000
7.500 1325.000 1.000
7.520 1269.000 1.000
7.540 1225.000 1.000
7.560 1248.000 1.000
7.580 1272.000 1.000
7.600 1262.000 1.000
7.620 1303.000 1.000
7.640 1322.000 1.000
7.660 1319.000 1.000
7.680 1324.000 1.000
7.700 1340.000 1.000
7.720 1316.000 1.000
7.740 1326.000 1.000
7.760 1311.000 1.000
7.780 1327.000 1.000
7.800 1322.000 1.000
7.820 1316.000 1.000
7.840 1294.000 1.000
7.860 1286.000 1.000
7.880 1292.000 1.000
7.900 1279.000 1.000
7.920 1323.000 1.000
7.940 1312.000 1.000
7.960 1271.000 1.000
7.980 1289.000 1.000
8.000 1252.000 1.000
8.020 1264.000 1.000
8.040 1262.000 1.000
8.060 1261.000 1.000
8.080 1253.000 1.000
8.100 1287.000 1.000
8.120 1323.000 1.000
8.140 1296.000 1.000
8.160 1319.000 1.000
8.180 1338.000 1.000
8.200 1293.000 1.000
8.220 1267.000 1.000
8.240 1305.000 1.000
8.260 1286.000 1.000
8.280 1294.000 1.000
8.300 1326.000 1.000
8.320 1320.000 1.000
8.340 1317.000 1.000
8.360 1360.000 1.000
8.380 1312.000 1.000
8.400 1291.000 1.000
8.420 1277.000 1.000
8.440 1267.000 1.000
8.460 1285.000 1.000
8.480 1286.000 1.000
8.500 1307.000 1.000
8.520 1333.000 1.000
8.540 1318.000 1.000
8.560 1277.000 1.000
8.580 1254.000 1.000
8.600 1298.000 1.000
8.620 1291.000 1.000
8.640 1286.000 1.000
8.660 1285.000 1.000
8.680 1299.000 1.000
8.700 1303.000 1.000
8.720 1318.000 1.000
8.740 1295.000 1.000
8.760 1267.000 1.000
8.780 1267.000 1.000
8.800 1291.000 1.000
8.820 1319.000 1.000
8.840 1318.000 1.000
8.860 1287.000 1.000
8.880 1300.000 1.000
8.900 1295.000 1.000
8.920 1299.000 1.000
8.940 1278.000 1.000
8.960 1290.000 1.000
8.980 1293.000 1.000
9.000 1337.000 1.000
9.020 1355.000 1.000
9.040 1281.000 1.000
9.060 1313.000 1.000
9.080 1336.000 1.000
9.100 1306.000 1.000
9.120 1325.000 1.000
9.140 1370.000 1.000
9.160 1387.000 1.000
9.180 1321.000 1.000
9.200 1303.000 1.000
9.220 1320.000 1.000
9.240 1316.000 1.000
9.260 1319.000 1.000
9.280 1321.000 1.000
9.300 1348.000 1.000
9.320 1363.000 1.000
9.340 1355.000 1.000
9.360 1346.000 1.000
9.380 1349.000 1.000
9.400 1340.000 1.000
9.420 1355.000 1.000
9.440 1357.000 1.000
9.460 1333.000 1.000
9.480 1298.000 1.000
9.500 1272.000 1.000
9.520 1266.000 1.000
9.540 1288.000 1.000
9.560 1326.000 1.000
9.580 1353.000 1.000
9.600 1379.000 1.000
9.620 1355.000 1.000
9.640 1356.000 1.000
9.660 1365.000 1.000
9.680 1385.000 1.000
9.700 1395.000 1.000
9.720 1360.000 1.000
9.740 1318.000 1.000
9.760 1290.000 1.000
9.780 1329.000 1.000
9.800 1360.000 1.000
9.820 1315.000 1.000
9.840 1364.000 1.000
9.860 1369.000 1.000
9.880 1400.000 1.000
9.900 1392.000 1.000
9.920 1381.000 1.000
9.940 1364.000 1.000
9.960 1365.000 1.000
9.980 1370.000 1.000
10.000 1376.000 1.000
10.020 1375.000 1.000
10.040 1359.000 1.000
10.060 1395.000 1.000
10.080 1405.000 1.000
10.100 1381.000 1.000
10.120 1363.000 1.000
10.140 1371.000 1.000
10.160 1395.000 1.000
10.180 1385.000 1.000
10.200 1348.000 1.000
10.220 1378.000 1.000
10.240 1426.000 1.000
10.260 1429.000 1.000
10.280 1422.000 1.000
10.300 1384.000 1.000
10.320 1396.000 1.000
10.340 1425.000 1.000
10.360 1427.000 1.000
10.380 1444.000 1.000
10.400 1446.000 1.000
10.420 1392.000 1.000
10.440 1357.000 1.000
10.460 1373.000 1.000
10.480 1431.000 1.000
10.500 1430.000 1.000
10.520 1388.000 1.000
10.540 1398.000 1.000
10.560 1462.000 1.000
10.580 1451.000 1.000
10.600 1435.000 1.000
10.620 1447.000 1.000
10.640 1462.000 1.000
10.660 1426.000 1.000
10.680 1409.000 1.000
10.700 1409.000 1.000
10.720 1433.000 1.000
10.740 1436.000 1.000
10.760 1465.000 1.000
10.780 1447.000 1.000
10.800 1428.000 1.000
10.820 1427.000 1.000
10.840 1417.000 1.000
10.860 1452.000 1.000
10.880 1479.000 1.000
10.900 1450.000 1.000
10.920 1431.000 1.000
10.940 1471.000 1.000
10.960 1463.000 1.000
10.980 1487.000 1.000
11.000 1455.000 1.000
11.020 1440.000 1.000
11.040 1440.000 1.000
11.060 1471.000 1.000
11.080 1480.000 1.000
11.100 1500.000 1.000
11.120 1517.000 1.000
11.140 1436.000 1.000
11.160 1451.000 1.000
11.180 1510.000 1.000
11.200 1483.000 1.000
11.220 1492.000 1.000
11.240 1507.000 1.000
11.260 1479.000 1.000
11.280 1500.000 1.000
11.300 1500.000 1.000
11.320 1514.000 1.000
11.340 1550.000 1.000
11.360 1522.000 1.000
11.380 1526.000 1.000
11.400 1531.000 1.000
11.420 1564.000 1.000
11.440 1527.000 1.000
11.460 1534.000 1.000
11.480 1557.000 1.000
11.500 1525.000 1.000
11.520 1516.000 1.000
11.540 1477.000 1.000
11.560 1472.000 1.000
11.580 1480.000 1.000
11.600 1516.000 1.000
11.620 1565.000 1.000
11.640 1534.000 1.000
11.660 1503.000 1.000
11.680 1503.000 1.000
11.700 1544.000 1.000
11.720 1550.000 1.000
11.740 1574.000 1.000
11.760 1569.000 1.000
11.780 1566.000 1.000
11.800 1502.000 1.000
11.820 1508.000 1.000
11.840 1517.000 1.000
11.860 1566.000 1.000
11.880 1558.000 1.000
11.900 1553.000 1.000
11.920 1524.000 1.000
11.940 1521.000 1.000
11.960 1521.000 1.000
11.980 1552.000 1.000
12.000 1587.000 1.000
12.020 1533.000 1.000
12.040 1509.000 1.000
12.060 1498.000 1.000
12.080 1540.000 1.000
12.100 1555.000 1.000
12.120 1599.000 1.000
12.140 1629.000 1.000
12.160 1582.000 1.000
12.180 1558.000 1.000
12.200 1598.000 1.000
12.220 1604.000 1.000
12.240 1618.000 1.000
12.260 1612.000 1.000
12.280 1639.000 1.000
12.300 1612.000 1.000
12.320 1618.000 1.000
12.340 1582.000 1.000
12.360 1549.000 1.000
12.380 1577.000 1.000
12.400 1567.000 1.000
12.420 1618.000 1.000
12.440 1616.000 1.000
12.460 1592.000 1.000
12.480 1612.000 1.000
12.500 1649.000 1.000
12.520 1614.000 1.000
12.540 1570.000 1.000
12.560 1600.000 1.000
12.580 1574.000 1.000
12.600 1525.000 1.000
12.620 1517.000 1.000
12.640 1550.000 1.000
12.660 1593.000 1.000
12.680 1579.000 1.000
12.700 1578.000 1.000
12.720 1606.000 1.000
12.740 1611.000 1.000
12.760 1550.000 1.000
12.780 1575.000 1.000
12.800 1606.000 1.000
12.820 1596.000 1.000
12.840 1616.000 1.000
12.860 1618.000 1.000
12.880 1605.000 1.000
12.900 1622.000 1.000
12.920 1622.000 1.000
12.940 1628.000 1.000
12.960 1605.000 1.000
12.980 1638.000 1.000
13.000 1626.000 1.000
13.020 1599.000 1.000
13.040 1634.000 1.000
13.060 1629.000 1.000
13.080 1652.000 1.000
13.100 1681.000 1.000
13.120 1614.000 1.000
13.140 1671.000 1.000
13.160 1681.000 1.000
13.180 1661.000 1.000
13.200 1666.000 1.000
13.220 1674.000 1.000
13.240 1636.000 1.000
13.260 1584.000 1.000
13.280 1607.000 1.000
13.300 1626.000 1.000
13.320 1632.000 1.000
13.340 1671.000 1.000
13.360 1704.000 1.000
13.380 1654.000 1.000
13.400 1650.000 1.000
13.420 1664.000 1.000
13.440 1641.000 1.000
13.460 1682.000 1.000
13.480 1677.000 1.000
13.500 1692.000 1.000
13.520 1667.000 1.000
13.540 1638.000 1.000
13.560 1666.000 1.000
13.580 1671.000 1.000
13.600 1626.000 1.000
13.620 1631.000 1.000
13.640 1643.000 1.000
13.660 1662.000 1.000
13.680 1683.000 1.000
13.700 1668.000 1.000
13.720 1668.000 1.000
13.740 1698.000 1.000
13.760 1724.000 1.000
13.780 1722.000 1.000
13.800 1697.000 1.000
13.820 1665.000 1.000
13.840 1684.000 1.000
13.860 1647.000 1.000
13.880 1678.000 1.000
13.900 1690.000 1.000
13.920 1694.000 1.000
13.940 1684.000 1.000
13.960 1662.000 1.000
13.980 1672.000 1.000
14.000 1646.000 1.000
14.020 1693.000 1.000
14.040 1717.000 1.000
14.060 1692.000 1.000
14.080 1681.000 1.000
14.100 1719.000 1.000
14.120 1706.000 1.000
14.140 1675.000 1.000
14.160 1691.000 1.000
14.180 1727.000 1.000
14.200 1735.000 1.000
14.220 1701.000 1.000
14.240 1693.000 1.000
14.260 1685.000 1.000
14.280 1679.000 1.000
14.300 1705.000 1.000
14.320 1760.000 1.000
14.340 1730.000 1.000
14.360 1732.000 1.000
14.380 1724.000 1.000
14.400 1696.000 1.000
14.420 1697.000 1.000
14.440 1720.000 1.000
14.460 1703.000 1.000
14.480 1708.000 1.000
14.500 1721.000 1.000
14.520 1708.000 1.000
14.540 1739.000 1.000
14.560 1725.000 1.000
14.580 1706.000 1.000
14.600 1752.000 1.000
14.620 1691.000 1.000
14.640 1700.000 1.000
14.660 1706.000 1.000
14.680 1710.000 1.000
14.700 1745.000 1.000
14.720 1753.000 1.000
14.740 1756.000 1.000
14.760 1694.000 1.000
14.780 1735.000 1.000
14.800 1745.000 1.000
14.820 1687.000 1.000
14.840 1677.000 1.000
14.860 1704.000 1.000
14.880 1717.000 1.000
14.900 1707.000 1.000
14.920 1668.000 1.000
14.940 1707.000 1.000
14.960 1735.000 1.000
14.980 1735.000 1.000
15.000 1755.000 1.000
15.020 1726.000 1.000
15.040 1716.000 1.000
15.060 1751.000 1.000
15.080 1770.000 1.000
15.100 1784.000 1.000
15.120 1764.000 1.000
15.140 1788.000 1.000
15.160 1781.000 1.000
15.180 1748.000 1.000
15.200 1732.000 1.000
15.220 1767.000 1.000
15.240 1785.000 1.000
15.260 1750.000 1.000
15.280 1757.000 1.000
15.300 1740.000 1.000
15.320 1756.000 1.000
15.340 1767.000 1.000
15.360 1743.000 1.000
15.380 1791.000 1.000
15.400 1789.000 1.000
15.420 1785.000 1.000
15.440 1735.000 1.000
15.460 1726.000 1.000
15.480 1752.000 1.000
15.500 1749.000 1.000
15.520 1779.000 1.000
15.540 1790.000 1.000
15.560 1808.000 1.000
15.580 1770.000 1.000
15.600 1803.000 1.000
15.620 1789.000 1.000
15.640 1705.000 1.000
15.660 1734.000 1.000
15.680 1773.000 1.000
15.700 1805.000 1.000
15.720 1791.000 1.000
15.740 1787.000 1.000
15.760 1770.000 1.000
15.780 1764.000 1.000
15.800 1767.000 1.000
15.820 1803.000 1.000
15.840 1835.000 1.000
15.860 1818.000 1.000
15.880 1821.000 1.000
15.900 1864.000 1.000
15.920 1843.000 1.000
15.940 1833.000 1.000
15.960 1838.000 1.000
15.980 1799.000 1.000
16.000 1834.000 1.000
16.020 1822.000 1.000
16.040 1749.000 1.000
16.060 1757.000 1.000
16.080 1761.000 1.000
16.100 1788.000 1.000
16.120 1832.000 1.000
16.140 1804.000 1.000
16.160 1766.000 1.000
16.180 1764.000 1.000
16.200 1785.000 1.000
16.220 1822.000 1.000
16.240 1838.000 1.000
16.260 1825.000 1.000
16.280 1847.000 1.000
16.300 1877.000 1.000
16.320 1802.000 1.000
16.340 1810.000 1.000
16.360 1802.000 1.000
16.380 1807.000 1.000
16.400 1805.000 1.000
16.420 1823.000 1.000
16.440 1825.000 1.000
16.460 1803.000 1.000
16.480 1826.000 1.000
16.500 1804.000 1.000
16.520 1823.000 1.000
16.540 1818.000 1.000
16.560 1802.000 1.000
16.580 1797.000 1.000
16.600 1782.000 1.000
16.620 1783.000 1.000
16.640 1813.000 1.000
16.660 1823.000 1.000
16.680 1786.000 1.000
16.700 1816.000 1.000
16.720 1881.000 1.000
16.740 1888.000 1.000
16.760 1836.000 1.000
16.780 1810.000 1.000
16.800 1867.000 1.000
16.820 1828.000 1.000
16.840 1819.000 1.000
16.860 1821.000 1.000
16.880 1801.000 1.000
16.900 1824.000 1.000
16.920 1827.000 1.000
16.940 1786.000 1.000
16.960 1757.000 1.000
16.980 1803.000 1.000
17.000 1824.000 1.000
17.020 1848.000 1.000
17.040 1875.000 1.000
17.060 1854.000 1.000
17.080 1839.000 1.000
17.100 1829.000 1.000
17.120 1873.000 1.000
17.140 1863.000 1.000
17.160 1866.000 1.000
17.180 1897.000 1.000
17.200 1872.000 1.000
17.220 1862.000 1.000
17.240 1863.000 1.000
17.260 1839.000 1.000
17.280 1825.000 1.000
17.300 1833.000 1.000
17.320 1897.000 1.000
17.340 1864.000 1.000
17.360 1880.000 1.000
17.380 1870.000 1.000
17.400 1902.000 1.000
17.420 1935.000 1.000
17.440 1946.000 1.000
17.460 1846.000 1.000
17.480 1816.000 1.000
17.500 1870.000 1.000
17.520 1933.000 1.000
17.540 1926.000 1.000
17.560 1848.000 1.000
17.580 1907.000 1.000
17.600 1921.000 1.000
17.620 1886.000 1.000
17.640 1872.000 1.000
17.660 1863.000 1.000
17.680 1905.000 1.000
17.700 1887.000 1.000
17.720 1916.000 1.000
17.740 1883.000 1.000
17.760 1868.000 1.000
17.780 1847.000 1.000
17.800 1828.000 1.000
17.820 1860.000 1.000
17.840 1851.000 1.000
17.860 1891.000 1.000
17.880 1891.000 1.000
17.900 1898.000 1.000
17.920 1899.000 1.000
17.940 1869.000 1.000
17.960 1908.000 1.000
17.980 1903.000 1.000
18.000 1843.000 1.000
18.020 1893.000 1.000
18.040 1911.000 1.000
18.060 1977.000 1.000
18.080 2013.000 1.000
18.100 1969.000 1.000
18.120 2017.000 1.000
18.140 2041.000 1.000
18.160 1979.000 1.000
18.180 1976.000 1.000
18.200 1941.000 1.000
18.220 1906.000 1.000
18.240 1911.000 1.000
18.260 1935.000 1.000
18.280 1935.000 1.000
18.300 1924.000 1.000
18.320 1949.000 1.000
18.340 1930.000 1.000
18.360 1932.000 1.000
18.380 1926.000 1.000
18.400 1914.000 1.000
18.420 1910.000 1.000
18.440 1900.000 1.000
18.460 1911.000 1.000
18.480 1940.000 1.000
18.500 1890.000 1.000
18.520 1936.000 1.000
18.540 1972.000 1.000
18.560 1927.000 1.000
18.580 1947.000 1.000
18.600 1923.000 1.000
18.620 1932.000 1.000
18.640 1891.000 1.000
18.660 1894.000 1.000
18.680 1953.000 1.000
18.700 1994.000 1.000
18.720 1947.000 1.000
18.740 1898.000 1.000
18.760 1927.000 1.000
18.780 1941.000 1.000
18.800 1951.000 1.000
18.820 1984.000 1.000
18.840 1930.000 1.000
18.860 1900.000 1.000
18.880 1942.000 1.000
18.900 1986.000 1.000
18.920 1925.000 1.000
18.940 1919.000 1.000
18.960 1984.000 1.000
18.980 1989.000 1.000
19.000 1953.000 1.000
19.020 1908.000 1.000
19.040 1927.000 1.000
19.060 1992.000 1.000
19.080 1981.000 1.000
19.100 1950.000 1.000
19.120 1969.000 1.000
19.140 1996.000 1.000
19.160 1967.000 1.000
19.180 1934.000 1.000
19.200 1983.000 1.000
19.220 1937.000 1.000
19.240 1933.000 1.000
19.260 1995.000 1.000
19.280 2010.000 1.000
19.300 1975.000 1.000
19.320 1941.000 1.000
19.340 1970.000 1.000
19.360 1983.000 1.000
19.380 1996.000 1.000
19.400 1955.000 1.000
19.420 1960.000 1.000
19.440 1962.000 1.000
19.460 1996.000 1.000
19.480 1998.000 1.000
19.500 1956.000 1.000
19.520 1979.000 1.000
19.540 1973.000 1.000
19.560 1923.000 1.000
19.580 1940.000 1.000
19.600 1921.000 1.000
19.620 1933.000 1.000
19.640 1958.000 1.000
19.660 2002.000 1.000
19.680 2031.000 1.000
19.700 2013.000 1.000
19.720 1975.000 1.000
19.740 1953.000 1.000
19.760 1947.000 1.000
19.780 1946.000 1.000
19.800 1966.000 1.000
19.820 2047.000 1.000
19.840 1991.000 1.000
19.860 1992.000 1.000
19.880 2008.000 1.000
19.900 1992.000 1.000
19.920 1977.000 1.000
19.940 2003.000 1.000
19.960 2024.000 1.000
19.980 2025.000 1.000
20.000 1992.000 1.000
20.020 1991.000 1.000
20.040 2003.000 1.000
20.060 1976.000 1.000
20.080 1968.000 1.000
20.100 1990.000 1.000
20.120 1962.000 1.000
20.140 2021.000 1.000
20.160 2036.000 1.000
20.180 2032.000 1.000
20.200 2024.000 1.000
20.220 1971.000 1.000
20.240 1959.000 1.000
20.260 1974.000 1.000
20.280 2006.000 1.000
20.300 2038.000 1.000
20.320 2048.000 1.000
20.340 2045.000 1.000
20.360 2048.000 1.000
20.380 2044.000 1.000
20.400 2036.000 1.000
20.420 2031.000 1.000
20.440 1983.000 1.000
20.460 2032.000 1.000
20.480 2045.000 1.000
20.500 2066.000 1.000
20.520 2027.000 1.000
20.540 2020.000 1.000
20.560 2051.000 1.000
20.580 1992.000 1.000
20.600 1959.000 1.000
20.620 1972.000 1.000
20.640 1994.000 1.000
20.660 2006.000 1.000
20.680 2008.000 1.000
20.700 2018.000 1.000
20.720 2025.000 1.000
20.740 2027.000 1.000
20.760 2041.000 1.000
20.780 1981.000 1.000
20.800 1954.000 1.000
20.820 1984.000 1.000
20.840 1995.000 1.000
20.860 1993.000 1.000
20.880 1963.000 1.000
20.900 1993.000 1.000
20.920 2011.000 1.000
20.940 2011.000 1.000
20.960 2028.000 1.000
20.980 2050.000 1.000
21.000 2077.000 1.000
21.020 2055.000 1.000
21.040 1984.000 1.000
21.060 1965.000 1.000
21.080 1987.000 1.000
21.100 1994.000 1.000
21.120 1960.000 1.000
21.140 1970.000 1.000
21.160 2014.000 1.000
21.180 2033.000 1.000
21.200 2066.000 1.000
21.220 2041.000 1.000
21.240 2014.000 1.000
21.260 2010.000 1.000
21.280 2056.000 1.000
21.300 2064.000 1.000
21.320 2015.000 1.000
21.340 2040.000 1.000
21.360 1982.000 1.000
21.380 2028.000 1.000
21.400 2041.000 1.000
21.420 2060.000 1.000
21.440 2044.000 1.000
21.460 1975.000 1.000
21.480 2037.000 1.000
21.500 2072.000 1.000
21.520 2033.000 1.000
21.540 2040.000 1.000
21.560 2063.000 1.000
21.580 2104.000 1.000
21.600 2100.000 1.000
21.620 2034.000 1.000
21.640 1990.000 1.000
21.660 2015.000 1.000
21.680 2053.000 1.000
21.700 2061.000 1.000
21.720 2101.000 1.000
21.740 2050.000 1.000
21.760 2066.000 1.000
21.780 2111.000 1.000
21.800 2098.000 1.000
21.820 2051.000 1.000
21.840 2110.000 1.000
21.860 2108.000 1.000
21.880 2021.000 1.000
21.900 2039.000 1.000
21.920 2068.000 1.000
21.940 2047.000 1.000
21.960 2033.000 1.000
21.980 2044.000 1.000
22.000 2054.000 1.000
22.020 2037.000 1.000
22.040 1989.000 1.000
22.060 2013.000 1.000
22.080 2043.000 1.000
22.100 2098.000 1.000
22.120 2112.000 1.000
22.140 2030.000 1.000
22.160 2029.000 1.000
22.180 2042.000 1.000
22.200 2025.000 1.000
22.220 2007.000 1.000
22.240 2042.000 1.000
22.260 2081.000 1.000
22.280 2037.000 1.000
22.300 2049.000 1.000
22.320 2078.000 1.000
22.340 2049.000 1.000
22.360 2000.000 1.000
22.380 2005.000 1.000
22.400 2014.000 1.000
22.420 2037.000 1.000
22.440 2041.000 1.000
22.460 2030.000 1.000
22.480 2072.000 1.000
22.500 2101.000 1.000
22.520 2095.000 1.000
22.540 2080.000 1.000
22.560 2067.000 1.000
22.580 2021.000 1.000
22.600 2048.000 1.000
22.620 2110.000 1.000
22.640 2131.000 1.000
22.660 2105.000 1.000
22.680 2081.000 1.000
22.700 2121.000 1.000
22.720 2096.000 1.000
22.740 2074.000 1.000
22.760 2071.000 1.000
22.780 2103.000 1.000
22.800 2049.000 1.000
22.820 2025.000 1.000
22.840 2077.000 1.000
22.860 2095.000 1.000
22.880 2105.000 1.000
22.900 2099.000 1.000
22.920 2033.000 1.000
22.940 2075.000 1.000
22.960 2151.000 1.000
22.980 2099.000 1.000
23.000 2091.000 1.000
23.020 2072.000 1.000
23.040 2060.000 1.000
23.060 2108.000 1.000
23.080 2102.000 1.000
23.100 2082.000 1.000
23.120 2112.000 1.000
23.140 2141.000 1.000
23.160 2109.000 1.000
23.180 2104.000 1.000
23.200 2105.000 1.000
23.220 2067.000 1.000
23.240 2112.000 1.000
23.260 2152.000 1.000
23.280 2125.000 1.000
23.300 2118.000 1.000
23.320 2094.000 1.000
23.340 2104.000 1.000
23.360 2090.000 1.000
23.380 2087.000 1.000
23.400 2095.000 1.000
23.420 2129.000 1.000
23.440 2140.000 1.000
23.460 2114.000 1.000
23.480 2127.000 1.000
23.500 2132.000 1.000
23.520 2063.000 1.000
23.540 2042.000 1.000
23.560 2073.000 1.000
23.580 2107.000 1.000
23.600 2144.000 1.000
23.620 2170.000 1.000
23.640 2177.000 1.000
23.660 2172.000 1.000
23.680 2186.000 1.000
23.700 2215.000 1.000
23.720 2184.000 1.000
23.740 2179.000 1.000
23.760 2187.000 1.000
23.780 2180.000 1.000
23.800 2198.000 1.000
23.820 2272.000 1.000
23.840 2263.000 1.000
23.860 2221.000 1.000
23.880 2289.000 1.000
23.900 2333.000 1.000
23.920 2418.000 1.000
23.940 2527.000 1.000
23.960 2649.000 1.000
23.980 2780.000 1.000
24.000 2967.000 1.000
24.020 3124.000 1.000
24.040 3299.000 1.000
24.060 3398.000 1.000
24.080 3394.000 1.000
24.100 3290.000 1.000
24.120 3164.000 1.000
24.140 3004.000 1.000
24.160 2871.000 1.000
24.180 2745.000 1.000
24.200 2578.000 1.000
24.220 2401.000 1.000
24.240 2353.000 1.000
24.260 2318.000 1.000
24.280 2304.000 1.000
24.300 2280.000 1.000
24.320 2220.000 1.000
24.340 2206.000 1.000
24.360 2207.000 1.000
24.380 2219.000 1.000
24.400 2200.000 1.000
24.420 2148.000 1.000
24.440 2186.000 1.000
24.460 2186.000 1.000
24.480 2171.000 1.000
24.500 2166.000 1.000
24.520 2144.000 1.000
24.540 2143.000 1.000
24.560 2109.000 1.000
24.580 2091.000 1.000
24.600 2126.000 1.000
24.620 2147.000 1.000
24.640 2138.000 1.000
24.660 2181.000 1.000
24.680 2168.000 1.000
24.700 2121.000 1.000
24.720 2143.000 1.000
24.740 2152.000 1.000
24.760 2202.000 1.000
24.780 2247.000 1.000
24.800 2232.000 1.000
24.820 2178.000 1.000
24.840 2167.000 1.000
24.860 2132.000 1.000
24.880 2107.000 1.000
24.900 2144.000 1.000
24.920 2186.000 1.000
24.940 2169.000 1.000
24.960 2183.000 1.000
24.980 2129.000 1.000
25.000 2075.000 1.000
25.020 2089.000 1.000
25.040 2098.000 1.000
25.060 2126.000 1.000
25.080 2174.000 1.000
25.100 2129.000 1.000
25.120 2117.000 1.000
25.140 2151.000 1.000
25.160 2127.000 1.000
25.180 2135.000 1.000
25.200 2120.000 1.000
25.220 2119.000 1.000
25.240 2152.000 1.000
25.260 2107.000 1.000
25.280 2104.000 1.000
25.300 2159.000 1.000
25.320 2138.000 1.000
25.340 2124.000 1.000
25.360 2113.000 1.000
25.380 2136.000 1.000
25.400 2146.000 1.000
25.420 2137.000 1.000
25.440 2147.000 1.000
25.460 2131.000 1.000
25.480 2152.000 1.000
25.500 2150.000 1.000
25.520 2146.000 1.000
25.540 2177.000 1.000
25.560 2222.000 1.000
25.580 2211.000 1.000
25.600 2186.000 1.000
25.620 2177.000 1.000
25.640 2163.000 1.000
25.660 2148.000 1.000
25.680 2174.000 1.000
25.700 2169.000 1.000
25.720 2129.000 1.000
25.740 2151.000 1.000
25.760 2162.000 1.000
25.780 2147.000 1.000
25.800 2110.000 1.000
25.820 2132.000 1.000
25.840 2182.000 1.000
25.860 2190.000 1.000
25.880 2154.000 1.000
25.900 2133.000 1.000
25.920 2157.000 1.000
25.940 2190.000 1.000
25.960 2166.000 1.000
25.980 2158.000 1.000
26.000 2160.000 1.000
26.020 2162.000 1.000
26.040 2159.000 1.000
26.060 2184.000 1.000
26.080 2152.000 1.000
26.100 2129.000 1.000
26.120 2175.000 1.000
26.140 2175.000 1.000
26.160 2171.000 1.000
26.180 2176.000 1.000
26.200 2190.000 1.000
26.220 2243.000 1.000
26.240 2322.000 1.000
26.260 2237.000 1.000
26.280 2167.000 1.000
26.300 2176.000 1.000
26.320 2150.000 1.000
26.340 2183.000 1.000
26.360 2219.000 1.000
26.380 2190.000 1.000
26.400 2186.000 1.000
26.420 2180.000 1.000
26.440 2228.000 1.000
26.460 2274.000 1.000
26.480 2263.000 1.000
26.500 2251.000 1.000
26.520 2209.000 1.000
26.540 2196.000 1.000
26.560 2203.000 1.000
26.580 2224.000 1.000
26.600 2223.000 1.000
26.620 2213.000 1.000
26.640 2177.000 1.000
26.660 2132.000 1.000
26.680 2156.000 1.000
26.700 2159.000 1.000
26.720 2124.000 1.000
26.740 2126.000 1.000
26.760 2141.000 1.000
26.780 2164.000 1.000
26.800 2164.000 1.000
26.820 2181.000 1.000
26.840 2210.000 1.000
26.860 2197.000 1.000
26.880 2225.000 1.000
26.900 2186.000 1.000
26.920 2119.000 1.000
26.940 2116.000 1.000
26.960 2151.000 1.000
26.980 2193.000 1.000
27.000 2198.000 1.000
27.020 2193.000 1.000
27.040 2211.000 1.000
27.060 2173.000 1.000
27.080 2195.000 1.000
27.100 2186.000 1.000
27.120 2116.000 1.000
27.140 2131.000 1.000
27.160 2139.000 1.000
27.180 2152.000 1.000
27.200 2131.000 1.000
27.220 2124.000 1.000
27.240 2150.000 1.000
27.260 2159.000 1.000
27.280 2190.000 1.000
27.300 2212.000 1.000
27.320 2174.000 1.000
27.340 2128.000 1.000
27.360 2142.000 1.000
27.380 2169.000 1.000
27.400 2179.000 1.000
27.420 2179.000 1.000
27.440 2170.000 1.000
27.460 2162.000 1.000
27.480 2174.000 1.000
27.500 2178.000 1.000
27.520 2157.000 1.000
27.540 2185.000 1.000
27.560 2197.000 1.000
27.580 2173.000 1.000
27.600 2167.000 1.000
27.620 2174.000 1.000
27.640 2160.000 1.000
27.660 2128.000 1.000
27.680 2136.000 1.000
27.700 2156.000 1.000
27.720 2167.000 1.000
27.740 2190.000 1.000
27.760 2188.000 1.000
27.780 2178.000 1.000
27.800 2190.000 1.000
27.820 2202.000 1.000
27.840 2166.000 1.000
27.860 2187.000 1.000
27.880 2268.000 1.000
27.900 2247.000 1.000
27.920 2250.000 1.000
27.940 2210.000 1.000
27.960 2195.000 1.000
27.980 2187.000 1.000
28.000 2173.000 1.000
28.020 2193.000 1.000
28.040 2205.000 1.000
28.060 2212.000 1.000
28.080 2195.000 1.000
28.100 2195.000 1.000
28.120 2212.000 1.000
28.140 2201.000 1.000
28.160 2161.000 1.000
28.180 2161.000 1.000
28.200 2182.000 1.000
28.220 2222.000 1.000
28.240 2235.000 1.000
28.260 2204.000 1.000
28.280 2236.000 1.000
28.300 2233.000 1.000
28.320 2199.000 1.000
28.340 2160.000 1.000
28.360 2132.000 1.000
28.380 2159.000 1.000
28.400 2164.000 1.000
28.420 2156.000 1.000
28.440 2185.000 1.000
28.460 2185.000 1.000
28.480 2202.000 1.000
28.500 2197.000 1.000
28.520 2164.000 1.000
28.540 2172.000 1.000
28.560 2177.000 1.000
28.580 2181.000 1.000
28.600 2179.000 1.000
28.620 2188.000 1.000
28.640 2149.000 1.000
28.660 2115.000 1.000
28.680 2157.000 1.000
28.700 2214.000 1.000
28.720 2236.000 1.000
28.740 2158.000 1.000
28.760 2132.000 1.000
28.780 2186.000 1.000
28.800 2217.000 1.000
28.820 2192.000 1.000
28.840 2153.000 1.000
28.860 2150.000 1.000
28.880 2164.000 1.000
28.900 2185.000 1.000
28.920 2179.000 1.000
28.940 2138.000 1.000
28.960 2141.000 1.000
28.980 2171.000 1.000
29.000 2197.000 1.000
29.020 2224.000 1.000
29.040 2194.000 1.000
29.060 2190.000 1.000
29.080 2250.000 1.000
29.100 2228.000 1.000
29.120 2188.000 1.000
29.140 2175.000 1.000
29.160 2185.000 1.000
29.180 2189.000 1.000
29.200 2205.000 1.000
29.220 2217.000 1.000
29.240 2169.000 1.000
29.260 2181.000 1.000
29.280 2209.000 1.000
29.300 2222.000 1.000
29.320 2178.000 1.000
29.340 2165.000 1.000
29.360 2167.000 1.000
29.380 2168.000 1.000
29.400 2175.000 1.000
29.420 2159.000 1.000
29.440 2161.000 1.000
29.460 2191.000 1.000
29.480 2230.000 1.000
29.500 2199.000 1.000
29.520 2152.000 1.000
29.540 2132.000 1.000
29.560 2201.000 1.000
29.580 2269.000 1.000
29.600 2273.000 1.000
29.620 2235.000 1.000
29.640 2228.000 1.000
29.660 2257.000 1.000
29.680 2269.000 1.000
29.700 2301.000 1.000
29.720 2345.000 1.000
29.740 2333.000 1.000
29.760 2334.000 1.000
29.780 2440.000 1.000
29.800 2493.000 1.000
29.820 2555.000 1.000
29.840 2626.000 1.000
29.860 2642.000 1.000
29.880 2561.000 1.000
29.900 2452.000 1.000
29.920 2445.000 1.000
29.940 2406.000 1.000
29.960 2339.000 1.000
29.980 2321.000 1.000
30.000 2286.000 1.000
30.020 2253.000 1.000
30.040 2243.000 1.000
30.060 2225.000 1.000
30.080 2215.000 1.000
30.100 2213.000 1.000
30.120 2188.000 1.000
30.140 2202.000 1.000
30.160 2194.000 1.000
30.180 2131.000 1.000
30.200 2166.000 1.000
30.220 2207.000 1.000
30.240 2242.000 1.000
30.260 2227.000 1.000
30.280 2162.000 1.000
30.300 2162.000 1.000
30.320 2197.000 1.000
30.340 2187.000 1.000
30.360 2198.000 1.000
30.380 2224.000 1.000
30.400 2170.000 1.000
30.420 2187.000 1.000
30.440 2240.000 1.000
30.460 2197.000 1.000
30.480 2210.000 1.000
30.500 2219.000 1.000
30.520 2172.000 1.000
30.540 2212.000 1.000
30.560 2205.000 1.000
30.580 2186.000 1.000
30.600 2222.000 1.000
30.620 2206.000 1.000
30.640 2189.000 1.000
30.660 2168.000 1.000
30.680 2182.000 1.000
30.700 2217.000 1.000
30.720 2191.000 1.000
30.740 2175.000 1.000
30.760 2187.000 1.000
30.780 2216.000 1.000
30.800 2206.000 1.000
30.820 2191.000 1.000
30.840 2190.000 1.000
30.860 2164.000 1.000
30.880 2156.000 1.000
30.900 2223.000 1.000
30.920 2246.000 1.000
30.940 2207.000 1.000
30.960 2205.000 1.000
30.980 2208.000 1.000
31.000 2182.000 1.000
31.020 2190.000 1.000
31.040 2240.000 1.000
31.060 2244.000 1.000
31.080 2240.000 1.000
31.100 2212.000 1.000
31.120 2209.000 1.000
31.140 2239.000 1.000
31.160 2267.000 1.000
31.180 2256.000 1.000
31.200 2193.000 1.000
31.220 2222.000 1.000
31.240 2304.000 1.000
31.260 2282.000 1.000
31.280 2211.000 1.000
31.300 2210.000 1.000
31.320 2238.000 1.000
31.340 2220.000 1.000
31.360 2207.000 1.000
31.380 2221.000 1.000
31.400 2255.000 1.000
31.420 2263.000 1.000
31.440 2270.000 1.000
31.460 2281.000 1.000
31.480 2307.000 1.000
31.500 2320.000 1.000
31.520 2316.000 1.000
31.540 2400.000 1.000
31.560 2505.000 1.000
31.580 2659.000 1.000
31.600 2935.000 1.000
31.620 3331.000 1.000
31.640 4014.000 1.000
31.660 5080.000 1.000
31.680 5828.000 1.000
31.700 5452.000 1.000
31.720 4519.000 1.000
31.740 4147.000 1.000
31.760 4183.000 1.000
31.780 3751.000 1.000
31.800 3015.000 1.000
31.820 2555.000 1.000
31.840 2393.000 1.000
31.860 2340.000 1.000
31.880 2294.000 1.000
31.900 2289.000 1.000
31.920 2259.000 1.000
31.940 2250.000 1.000
31.960 2270.000 1.000
31.980 2284.000 1.000
32.000 2300.000 1.000
32.020 2326.000 1.000
32.040 2322.000 1.000
32.060 2262.000 1.000
32.080 2252.000 1.000
32.100 2259.000 1.000
32.120 2220.000 1.000
32.140 2219.000 1.000
32.160 2266.000 1.000
32.180 2270.000 1.000
32.200 2223.000 1.000
32.220 2252.000 1.000
32.240 2286.000 1.000
32.260 2273.000 1.000
32.280 2264.000 1.000
32.300 2260.000 1.000
32.320 2266.000 1.000
32.340 2286.000 1.000
32.360 2302.000 1.000
32.380 2305.000 1.000
32.400 2303.000 1.000
32.420 2307.000 1.000
32.440 2262.000 1.000
32.460 2237.000 1.000
32.480 2282.000 1.000
32.500 2297.000 1.000
32.520 2282.000 1.000
32.540 2300.000 1.000
32.560 2312.000 1.000
32.580 2284.000 1.000
32.600 2285.000 1.000
32.620 2293.000 1.000
32.640 2323.000 1.000
32.660 2365.000 1.000
32.680 2361.000 1.000
32.700 2353.000 1.000
32.720 2379.000 1.000
32.740 2370.000 1.000
32.760 2428.000 1.000
32.780 2478.000 1.000
32.800 2468.000 1.000
32.820 2529.000 1.000
32.840 2624.000 1.000
32.860 2728.000 1.000
32.880 2843.000 1.000
32.900 2999.000 1.000
32.920 3141.000 1.000
32.940 3310.000 1.000
32.960 3626.000 1.000
32.980 4068.000 1.000
33.000 4498.000 1.000
33.020 5000.000 1.000
33.040 5576.000 1.000
33.060 6041.000 1.000
33.080 6224.000 1.000
33.100 6033.000 1.000
33.120 5702.000 1.000
33.140 5373.000 1.000
33.160 5060.000 1.000
33.180 4631.000 1.000
33.200 4125.000 1.000
33.220 3735.000 1.000
33.240 3449.000 1.000
33.260 3248.000 1.000
33.280 3086.000 1.000
33.300 2862.000 1.000
33.320 2702.000 1.000
33.340 2647.000 1.000
33.360 2585.000 1.000
33.380 2504.000 1.000
33.400 2485.000 1.000
33.420 2528.000 1.000
33.440 2448.000 1.000
33.460 2326.000 1.000
33.480 2331.000 1.000
33.500 2318.000 1.000
33.520 2294.000 1.000
33.540 2280.000 1.000
33.560 2275.000 1.000
33.580 2296.000 1.000
33.600 2317.000 1.000
33.620 2326.000 1.000
33.640 2303.000 1.000
33.660 2226.000 1.000
33.680 2224.000 1.000
33.700 2247.000 1.000
33.720 2240.000 1.000
33.740 2294.000 1.000
33.760 2293.000 1.000
33.780 2259.000 1.000
33.800 2237.000 1.000
33.820 2249.000 1.000
33.840 2271.000 1.000
33.860 2259.000 1.000
33.880 2215.000 1.000
33.900 2207.000 1.000
33.920 2243.000 1.000
33.940 2232.000 1.000
33.960 2211.000 1.000
33.980 2247.000 1.000
34.000 2254.000 1.000
34.020 2224.000 1.000
34.040 2205.000 1.000
34.060 2203.000 1.000
34.080 2233.000 1.000
34.100 2293.000 1.000
34.120 2293.000 1.000
34.140 2282.000 1.000
34.160 2291.000 1.000
34.180 2246.000 1.000
34.200 2229.000 1.000
34.220 2322.000 1.000
34.240 2369.000 1.000
34.260 2399.000 1.000
34.280 2419.000 1.000
34.300 2423.000 1.000
34.320 2450.000 1.000
34.340 2493.000 1.000
34.360 2473.000 1.000
34.380 2417.000 1.000
34.400 2377.000 1.000
34.420 2350.000 1.000
34.440 2394.000 1.000
34.460 2331.000 1.000
34.480 2263.000 1.000
34.500 2286.000 1.000
34.520 2296.000 1.000
34.540 2274.000 1.000
34.560 2302.000 1.000
34.580 2326.000 1.000
34.600 2306.000 1.000
34.620 2301.000 1.000
34.640 2284.000 1.000
34.660 2272.000 1.000
34.680 2271.000 1.000
34.700 2305.000 1.000
34.720 2295.000 1.000
34.740 2265.000 1.000
34.760 2256.000 1.000
34.780 2260.000 1.000
34.800 2256.000 1.000
34.820 2245.000 1.000
34.840 2261.000 1.000
34.860 2322.000 1.000
34.880 2347.000 1.000
34.900 2344.000 1.000
34.920 2335.000 1.000
34.940 2293.000 1.000
34.960 2338.000 1.000
34.980 2413.000 1.000
35.000 2467.000 1.000
35.020 2456.000 1.000
35.040 2472.000 1.000
35.060 2588.000 1.000
35.080 2718.000 1.000
35.100 2848.000 1.000
35.120 3058.000 1.000
35.140 3238.000 1.000
35.160 3301.000 1.000
35.180 3279.000 1.000
35.200 3280.000 1.000
35.220 3227.000 1.000
35.240 3172.000 1.000
35.260 3103.000 1.000
35.280 3054.000 1.000
35.300 3016.000 1.000
35.320 2989.000 1.000
35.340 2998.000 1.000
35.360 3018.000 1.000
35.380 3058.000 1.000
35.400 3156.000 1.000
35.420 3308.000 1.000
35.440 3482.000 1.000
35.460 3777.000 1.000
35.480 4169.000 1.000
35.500 4579.000 1.000
35.520 5010.000 1.000
35.540 5251.000 1.000
35.560 5287.000 1.000
35.580 5142.000 1.000
35.600 4895.000 1.000
35.620 4674.000 1.000
35.640 4443.000 1.000
35.660 4195.000 1.000
35.680 3881.000 1.000
35.700 3586.000 1.000
35.720 3313.000 1.000
35.740 3132.000 1.000
35.760 2977.000 1.000
35.780 2823.000 1.000
35.800 2676.000 1.000
35.820 2607.000 1.000
35.840 2584.000 1.000
35.860 2540.000 1.000
35.880 2449.000 1.000
35.900 2415.000 1.000
35.920 2444.000 1.000
35.940 2464.000 1.000
35.960 2440.000 1.000
35.980 2420.000 1.000
36.000 2367.000 1.000
36.020 2332.000 1.000
36.040 2345.000 1.000
36.060 2394.000 1.000
36.080 2471.000 1.000
36.100 2594.000 1.000
36.120 2749.000 1.000
36.140 2891.000 1.000
36.160 2979.000 1.000
36.180 2982.000 1.000
36.200 2879.000 1.000
36.220 2739.000 1.000
36.240 2695.000 1.000
36.260 2685.000 1.000
36.280 2594.000 1.000
36.300 2471.000 1.000
36.320 2392.000 1.000
36.340 2346.000 1.000
36.360 2288.000 1.000
36.380 2260.000 1.000
36.400 2264.000 1.000
36.420 2302.000 1.000
36.440 2339.000 1.000
36.460 2295.000 1.000
36.480 2229.000 1.000
36.500 2226.000 1.000
36.520 2235.000 1.000
36.540 2231.000 1.000
36.560 2267.000 1.000
36.580 2280.000 1.000
36.600 2280.000 1.000
36.620 2242.000 1.000
36.640 2239.000 1.000
36.660 2220.000 1.000
36.680 2233.000 1.000
36.700 2266.000 1.000
36.720 2246.000 1.000
36.740 2235.000 1.000
36.760 2280.000 1.000
36.780 2290.000 1.000
36.800 2310.000 1.000
36.820 2335.000 1.000
36.840 2253.000 1.000
36.860 2247.000 1.000
36.880 2296.000 1.000
36.900 2233.000 1.000
36.920 2233.000 1.000
36.940 2265.000 1.000
36.960 2283.000 1.000
36.980 2243.000 1.000
37.000 2217.000 1.000
37.020 2176.000 1.000
37.040 2158.000 1.000
37.060 2233.000 1.000
37.080 2250.000 1.000
37.100 2201.000 1.000
37.120 2221.000 1.000
37.140 2217.000 1.000
37.160 2230.000 1.000
37.180 2219.000 1.000
37.200 2205.000 1.000
37.220 2258.000 1.000
37.240 2258.000 1.000
37.260 2237.000 1.000
37.280 2241.000 1.000
37.300 2281.000 1.000
37.320 2268.000 1.000
37.340 2226.000 1.000
37.360 2261.000 1.000
37.380 2252.000 1.000
37.400 2186.000 1.000
37.420 2198.000 1.000
37.440 2234.000 1.000
37.460 2230.000 1.000
37.480 2203.000 1.000
37.500 2220.000 1.000
37.520 2237.000 1.000
37.540 2220.000 1.000
37.560 2204.000 1.000
37.580 2177.000 1.000
37.600 2182.000 1.000
37.620 2232.000 1.000
37.640 2212.000 1.000
37.660 2195.000 1.000
37.680 2273.000 1.000
37.700 2260.000 1.000
37.720 2225.000 1.000
37.740 2228.000 1.000
37.760 2239.000 1.000
37.780 2223.000 1.000
37.800 2213.000 1.000
37.820 2272.000 1.000
37.840 2277.000 1.000
37.860 2229.000 1.000
37.880 2252.000 1.000
37.900 2273.000 1.000
37.920 2288.000 1.000
37.940 2265.000 1.000
37.960 2203.000 1.000
37.980 2192.000 1.000
38.000 2196.000 1.000
38.020 2182.000 1.000
38.040 2263.000 1.000
38.060 2292.000 1.000
38.080 2237.000 1.000
38.100 2206.000 1.000
38.120 2211.000 1.000
38.140 2262.000 1.000
38.160 2247.000 1.000
38.180 2259.000 1.000
38.200 2287.000 1.000
38.220 2245.000 1.000
38.240 2210.000 1.000
38.260 2228.000 1.000
38.280 2222.000 1.000
38.300 2216.000 1.000
38.320 2211.000 1.000
38.340 2230.000 1.000
38.360 2234.000 1.000
38.380 2217.000 1.000
38.400 2197.000 1.000
38.420 2217.000 1.000
38.440 2257.000 1.000
38.460 2290.000 1.000
38.480 2272.000 1.000
38.500 2220.000 1.000
38.520 2188.000 1.000
38.540 2219.000 1.000
38.560 2242.000 1.000
38.580 2239.000 1.000
38.600 2200.000 1.000
38.620 2171.000 1.000
38.640 2172.000 1.000
38.660 2180.000 1.000
38.680 2213.000 1.000
38.700 2287.000 1.000
38.720 2296.000 1.000
38.740 2255.000 1.000
38.760 2268.000 1.000
38.780 2227.000 1.000
38.800 2222.000 1.000
38.820 2261.000 1.000
38.840 2255.000 1.000
38.860 2287.000 1.000
38.880 2241.000 1.000
38.900 2223.000 1.000
38.920 2250.000 1.000
38.940 2262.000 1.000
38.960 2273.000 1.000
38.980 2256.000 1.000
39.000 2220.000 1.000
39.020 2266.000 1.000
39.040 2256.000 1.000
39.060 2237.000 1.000
39.080 2273.000 1.000
39.100 2271.000 1.000
39.120 2248.000 1.000
39.140 2317.000 1.000
39.160 2305.000 1.000
39.180 2262.000 1.000
39.200 2301.000 1.000
39.220 2332.000 1.000
39.240 2309.000 1.000
39.260 2284.000 1.000
39.280 2295.000 1.000
39.300 2304.000 1.000
39.320 2271.000 1.000
39.340 2239.000 1.000
39.360 2206.000 1.000
39.380 2157.000 1.000
39.400 2206.000 1.000
39.420 2201.000 1.000
39.440 2169.000 1.000
39.460 2211.000 1.000
39.480 2235.000 1.000
39.500 2231.000 1.000
39.520 2212.000 1.000
39.540 2216.000 1.000
39.560 2217.000 1.000
39.580 2184.000 1.000
39.600 2166.000 1.000
39.620 2220.000 1.000
39.640 2233.000 1.000
39.660 2217.000 1.000
39.680 2171.000 1.000
39.700 2196.000 1.000
39.720 2266.000 1.000
39.740 2246.000 1.000
39.760 2211.000 1.000
39.780 2227.000 1.000
39.800 2274.000 1.000
39.820 2237.000 1.000
39.840 2233.000 1.000
39.860 2309.000 1.000
39.880 2281.000 1.000
39.900 2200.000 1.000
39.920 2222.000 1.000
39.940 2221.000 1.000
39.960 2222.000 1.000
39.980 2234.000 1.000
40.000 2235.000 1.000
40.020 2207.000 1.000
40.040 2250.000 1.000
40.060 2258.000 1.000
40.080 2239.000 1.000
40.100 2209.000 1.000
40.120 2235.000 1.000
40.140 2241.000 1.000
40.160 2246.000 1.000
40.180 2241.000 1.000
40.200 2211.000 1.000
40.220 2202.000 1.000
40.240 2225.000 1.000
40.260 2251.000 1.000
40.280 2313.000 1.000
40.300 2292.000 1.000
40.320 2279.000 1.000
40.340 2258.000 1.000
40.360 2248.000 1.000
40.380 2256.000 1.000
40.400 2225.000 1.000
40.420 2246.000 1.000
40.440 2298.000 1.000
40.460 2308.000 1.000
40.480 2319.000 1.000
40.500 2282.000 1.000
40.520 2264.000 1.000
40.540 2300.000 1.000
40.560 2390.000 1.000
40.580 2421.000 1.000
40.600 2407.000 1.000
40.620 2462.000 1.000
40.640 2463.000 1.000
40.660 2512.000 1.000
40.680 2566.000 1.000
40.700 2614.000 1.000
40.720 2756.000 1.000
40.740 2900.000 1.000
40.760 2923.000 1.000
40.780 2974.000 1.000
40.800 3028.000 1.000
40.820 2980.000 1.000
40.840 2935.000 1.000
40.860 2901.000 1.000
40.880 2811.000 1.000
40.900 2713.000 1.000
40.920 2620.000 1.000
40.940 2575.000 1.000
40.960 2536.000 1.000
40.980 2532.000 1.000
41.000 2496.000 1.000
41.020 2435.000 1.000
41.040 2425.000 1.000
41.060 2377.000 1.000
41.080 2362.000 1.000
41.100 2370.000 1.000
41.120 2315.000 1.000
41.140 2295.000 1.000
41.160 2273.000 1.000
41.180 2265.000 1.000
41.200 2252.000 1.000
41.220 2209.000 1.000
41.240 2223.000 1.000
41.260 2252.000 1.000
41.280 2279.000 1.000
41.300 2286.000 1.000
41.320 2253.000 1.000
41.340 2260.000 1.000
41.360 2283.000 1.000
41.380 2273.000 1.000
41.400 2287.000 1.000
41.420 2283.000 1.000
41.440 2252.000 1.000
41.460 2239.000 1.000
41.480 2216.000 1.000
41.500 2212.000 1.000
41.520 2226.000 1.000
41.540 2272.000 1.000
41.560 2185.000 1.000
41.580 2133.000 1.000
41.600 2241.000 1.000
41.620 2236.000 1.000
41.640 2224.000 1.000
41.660 2225.000 1.000
41.680 2204.000 1.000
41.700 2201.000 1.000
41.720 2205.000 1.000
41.740 2214.000 1.000
41.760 2239.000 1.000
41.780 2206.000 1.000
41.800 2189.000 1.000
41.820 2241.000 1.000
41.840 2207.000 1.000
41.860 2218.000 1.000
41.880 2233.000 1.000
41.900 2261.000 1.000
41.920 2267.000 1.000
41.940 2233.000 1.000
41.960 2188.000 1.000
41.980 2171.000 1.000
42.000 2211.000 1.000
42.020 2186.000 1.000
42.040 2186.000 1.000
42.060 2184.000 1.000
42.080 2179.000 1.000
42.100 2190.000 1.000
42.120 2180.000 1.000
42.140 2231.000 1.000
42.160 2201.000 1.000
42.180 2167.000 1.000
42.200 2204.000 1.000
42.220 2193.000 1.000
42.240 2208.000 1.000
42.260 2218.000 1.000
42.280 2243.000 1.000
42.300 2299.000 1.000
42.320 2245.000 1.000
42.340 2222.000 1.000
42.360 2201.000 1.000
42.380 2242.000 1.000
42.400 2225.000 1.000
42.420 2211.000 1.000
42.440 2234.000 1.000
42.460 2215.000 1.000
42.480 2238.000 1.000
42.500 2213.000 1.000
42.520 2227.000 1.000
42.540 2260.000 1.000
42.560 2217.000 1.000
42.580 2190.000 1.000
42.600 2217.000 1.000
42.620 2247.000 1.000
42.640 2246.000 1.000
42.660 2220.000 1.000
42.680 2257.000 1.000
42.700 2294.000 1.000
42.720 2264.000 1.000
42.740 2293.000 1.000
42.760 2288.000 1.000
42.780 2307.000 1.000
42.800 2329.000 1.000
42.820 2332.000 1.000
42.840 2320.000 1.000
42.860 2333.000 1.000
42.880 2293.000 1.000
42.900 2263.000 1.000
42.920 2291.000 1.000
42.940 2325.000 1.000
42.960 2287.000 1.000
42.980 2248.000 1.000
43.000 2259.000 1.000
43.020 2250.000 1.000
43.040 2216.000 1.000
43.060 2189.000 1.000
43.080 2192.000 1.000
43.100 2225.000 1.000
43.120 2225.000 1.000
43.140 2259.000 1.000
43.160 2236.000 1.000
43.180 2187.000 1.000
43.200 2185.000 1.000
43.220 2218.000 1.000
43.240 2218.000 1.000
43.260 2217.000 1.000
43.280 2277.000 1.000
43.300 2290.000 1.000
43.320 2259.000 1.000
43.340 2241.000 1.000
43.360 2236.000 1.000
43.380 2235.000 1.000
43.400 2258.000 1.000
43.420 2233.000 1.000
43.440 2250.000 1.000
43.460 2267.000 1.000
43.480 2269.000 1.000
43.500 2277.000 1.000
43.520 2264.000 1.000
43.540 2273.000 1.000
43.560 2290.000 1.000
43.580 2289.000 1.000
43.600 2283.000 1.000
43.620 2240.000 1.000
43.640 2219.000 1.000
43.660 2248.000 1.000
43.680 2235.000 1.000
43.700 2195.000 1.000
43.720 2166.000 1.000
43.740 2204.000 1.000
43.760 2219.000 1.000
43.780 2228.000 1.000
43.800 2221.000 1.000
43.820 2223.000 1.000
43.840 2247.000 1.000
43.860 2221.000 1.000
43.880 2190.000 1.000
43.900 2186.000 1.000
43.920 2202.000 1.000
43.940 2222.000 1.000
43.960 2186.000 1.000
43.980 2165.000 1.000
44.000 2180.000 1.000
44.020 2230.000 1.000
44.040 2258.000 1.000
44.060 2220.000 1.000
44.080 2183.000 1.000
44.100 2212.000 1.000
44.120 2238.000 1.000
44.140 2229.000 1.000
44.160 2229.000 1.000
44.180 2226.000 1.000
44.200 2208.000 1.000
44.220 2196.000 1.000
44.240 2181.000 1.000
44.260 2193.000 1.000
44.280 2241.000 1.000
44.300 2245.000 1.000
44.320 2192.000 1.000
44.340 2205.000 1.000
44.360 2212.000 1.000
44.380 2206.000 1.000
44.400 2194.000 1.000
44.420 2176.000 1.000
44.440 2151.000 1.000
44.460 2178.000 1.000
44.480 2232.000 1.000
44.500 2237.000 1.000
44.520 2185.000 1.000
44.540 2179.000 1.000
44.560 2191.000 1.000
44.580 2234.000 1.000
44.600 2230.000 1.000
44.620 2211.000 1.000
44.640 2202.000 1.000
44.660 2191.000 1.000
44.680 2153.000 1.000
44.700 2158.000 1.000
44.720 2153.000 1.000
44.740 2171.000 1.000
44.760 2206.000 1.000
44.780 2223.000 1.000
44.800 2235.000 1.000
44.820 2211.000 1.000
44.840 2195.000 1.000
44.860 2158.000 1.000
44.880 2143.000 1.000
44.900 2157.000 1.000
44.920 2211.000 1.000
44.940 2209.000 1.000
44.960 2228.000 1.000
44.980 2214.000 1.000
45.000 2197.000 1.000
45.020 2161.000 1.000
45.040 2155.000 1.000
45.060 2172.000 1.000
45.080 2226.000 1.000
45.100 2237.000 1.000
45.120 2226.000 1.000
45.140 2221.000 1.000
45.160 2203.000 1.000
45.180 2205.000 1.000
45.200 2237.000 1.000
45.220 2218.000 1.000
45.240 2232.000 1.000
45.260 2268.000 1.000
45.280 2234.000 1.000
45.300 2215.000 1.000
45.320 2229.000 1.000
45.340 2174.000 1.000
45.360 2156.000 1.000
45.380 2205.000 1.000
45.400 2233.000 1.000
45.420 2231.000 1.000
45.440 2208.000 1.000
45.460 2176.000 1.000
45.480 2169.000 1.000
45.500 2210.000 1.000
45.520 2200.000 1.000
45.540 2153.000 1.000
45.560 2213.000 1.000
45.580 2225.000 1.000
45.600 2193.000 1.000
45.620 2144.000 1.000
45.640 2154.000 1.000
45.660 2169.000 1.000
45.680 2191.000 1.000
45.700 2232.000 1.000
45.720 2225.000 1.000
45.740 2229.000 1.000
45.760 2225.000 1.000
45.780 2193.000 1.000
45.800 2140.000 1.000
45.820 2185.000 1.000
45.840 2207.000 1.000
45.860 2178.000 1.000
45.880 2203.000 1.000
45.900 2215.000 1.000
45.920 2238.000 1.000
45.940 2237.000 1.000
45.960 2210.000 1.000
45.980 2189.000 1.000
46.000 2195.000 1.000
46.020 2172.000 1.000
46.040 2197.000 1.000
46.060 2216.000 1.000
46.080 2173.000 1.000
46.100 2156.000 1.000
46.120 2118.000 1.000
46.140 2116.000 1.000
46.160 2158.000 1.000
46.180 2233.000 1.000
46.200 2209.000 1.000
46.220 2256.000 1.000
46.240 2296.000 1.000
46.260 2240.000 1.000
46.280 2177.000 1.000
46.300 2165.000 1.000
46.320 2225.000 1.000
46.340 2244.000 1.000
46.360 2224.000 1.000
46.380 2177.000 1.000
46.400 2210.000 1.000
46.420 2295.000 1.000
46.440 2266.000 1.000
46.460 2162.000 1.000
46.480 2178.000 1.000
46.500 2225.000 1.000
46.520 2206.000 1.000
46.540 2211.000 1.000
46.560 2219.000 1.000
46.580 2216.000 1.000
46.600 2204.000 1.000
46.620 2216.000 1.000
46.640 2167.000 1.000
46.660 2151.000 1.000
46.680 2167.000 1.000
46.700 2203.000 1.000
46.720 2184.000 1.000
46.740 2177.000 1.000
46.760 2166.000 1.000
46.780 2201.000 1.000
46.800 2227.000 1.000
46.820 2177.000 1.000
46.840 2125.000 1.000
46.860 2144.000 1.000
46.880 2178.000 1.000
46.900 2186.000 1.000
46.920 2209.000 1.000
46.940 2197.000 1.000
46.960 2213.000 1.000
46.980 2186.000 1.000
47.000 2168.000 1.000
47.020 2215.000 1.000
47.040 2234.000 1.000
47.060 2227.000 1.000
47.080 2249.000 1.000
47.100 2205.000 1.000
47.120 2181.000 1.000
47.140 2171.000 1.000
47.160 2158.000 1.000
47.180 2173.000 1.000
47.200 2222.000 1.000
47.220 2228.000 1.000
47.240 2223.000 1.000
47.260 2187.000 1.000
47.280 2200.000 1.000
47.300 2204.000 1.000
47.320 2209.000 1.000
47.340 2182.000 1.000
47.360 2204.000 1.000
47.380 2268.000 1.000
47.400 2319.000 1.000
47.420 2347.000 1.000
47.440 2335.000 1.000
47.460 2364.000 1.000
47.480 2367.000 1.000
47.500 2303.000 1.000
47.520 2260.000 1.000
47.540 2254.000 1.000
47.560 2301.000 1.000
47.580 2322.000 1.000
47.600 2306.000 1.000
47.620 2292.000 1.000
47.640 2225.000 1.000
47.660 2219.000 1.000
47.680 2229.000 1.000
47.700 2249.000 1.000
47.720 2217.000 1.000
47.740 2221.000 1.000
47.760 2274.000 1.000
47.780 2245.000 1.000
47.800 2203.000 1.000
47.820 2193.000 1.000
47.840 2179.000 1.000
47.860 2218.000 1.000
47.880 2252.000 1.000
47.900 2241.000 1.000
47.920 2224.000 1.000
47.940 2221.000 1.000
47.960 2233.000 1.000
47.980 2207.000 1.000
48.000 2240.000 1.000
48.020 2245.000 1.000
48.040 2225.000 1.000
48.060 2187.000 1.000
48.080 2216.000 1.000
48.100 2197.000 1.000
48.120 2133.000 1.000
48.140 2139.000 1.000
48.160 2161.000 1.000
48.180 2166.000 1.000
48.200 2190.000 1.000
48.220 2245.000 1.000
48.240 2277.000 1.000
48.260 2249.000 1.000
48.280 2226.000 1.000
48.300 2252.000 1.000
48.320 2215.000 1.000
48.340 2193.000 1.000
48.360 2226.000 1.000
48.380 2216.000 1.000
48.400 2239.000 1.000
48.420 2220.000 1.000
48.440 2192.000 1.000
48.460 2236.000 1.000
48.480 2279.000 1.000
48.500 2270.000 1.000
48.520 2216.000 1.000
48.540 2187.000 1.000
48.560 2146.000 1.000
48.580 2151.000 1.000
48.600 2205.000 1.000
48.620 2242.000 1.000
48.640 2248.000 1.000
48.660 2283.000 1.000
48.680 2242.000 1.000
48.700 2191.000 1.000
48.720 2228.000 1.000
48.740 2248.000 1.000
48.760 2296.000 1.000
48.780 2299.000 1.000
48.800 2264.000 1.000
48.820 2254.000 1.000
48.840 2250.000 1.000
48.860 2266.000 1.000
48.880 2276.000 1.000
48.900 2277.000 1.000
48.920 2257.000 1.000
48.940 2262.000 1.000
48.960 2289.000 1.000
48.980 2256.000 1.000
49.000 2244.000 1.000
49.020 2279.000 1.000
49.040 2320.000 1.000
49.060 2314.000 1.000
49.080 2283.000 1.000
49.100 2296.000 1.000
49.120 2346.000 1.000
49.140 2407.000 1.000
49.160 2487.000 1.000
49.180 2489.000 1.000
49.200 2453.000 1.000
49.220 2503.000 1.000
49.240 2623.000 1.000
49.260 2706.000 1.000
49.280 2760.000 1.000
49.300 2856.000 1.000
49.320 2965.000 1.000
49.340 3104.000 1.000
49.360 3250.000 1.000
49.380 3330.000 1.000
49.400 3317.000 1.000
49.420 3247.000 1.000
49.440 3201.000 1.000
49.460 3164.000 1.000
49.480 3127.000 1.000
49.500 3062.000 1.000
49.520 3048.000 1.000
49.540 2965.000 1.000
49.560 2830.000 1.000
49.580 2716.000 1.000
49.600 2659.000 1.000
49.620 2580.000 1.000
49.640 2560.000 1.000
49.660 2522.000 1.000
49.680 2413.000 1.000
49.700 2408.000 1.000
49.720 2400.000 1.000
49.740 2336.000 1.000
49.760 2306.000 1.000
49.780 2296.000 1.000
49.800 2351.000 1.000
49.820 2397.000 1.000
49.840 2364.000 1.000
49.860 2326.000 1.000
49.880 2284.000 1.000
49.900 2228.000 1.000
49.920 2189.000 1.000
49.940 2228.000 1.000
49.960 2264.000 1.000
49.980 2247.000 1.000
50.000 2273.000 1.000
50.020 2301.000 1.000
50.040 2200.000 1.000
50.060 2189.000 1.000
50.080 2278.000 1.000
50.100 2260.000 1.000
50.120 2201.000 1.000
50.140 2143.000 1.000
50.160 2177.000 1.000
50.180 2208.000 1.000
50.200 2198.000 1.000
50.220 2231.000 1.000
50.240 2232.000 1.000
50.260 2211.000 1.000
50.280 2257.000 1.000
50.300 2235.000 1.000
50.320 2189.000 1.000
50.340 2235.000 1.000
50.360 2229.000 1.000
50.380 2205.000 1.000
50.400 2155.000 1.000
50.420 2175.000 1.000
50.440 2200.000 1.000
50.460 2208.000 1.000
50.480 2205.000 1.000
50.500 2154.000 1.000
50.520 2151.000 1.000
50.540 2181.000 1.000
50.560 2204.000 1.000
50.580 2198.000 1.000
50.600 2169.000 1.000
50.620 2147.000 1.000
50.640 2153.000 1.000
50.660 2180.000 1.000
50.680 2195.000 1.000
50.700 2184.000 1.000
50.720 2208.000 1.000
50.740 2199.000 1.000
50.760 2178.000 1.000
50.780 2196.000 1.000
50.800 2182.000 1.000
50.820 2169.000 1.000
50.840 2176.000 1.000
50.860 2271.000 1.000
50.880 2309.000 1.000
50.900 2208.000 1.000
50.920 2153.000 1.000
50.940 2176.000 1.000
50.960 2195.000 1.000
50.980 2194.000 1.000
51.000 2194.000 1.000
51.020 2226.000 1.000
51.040 2194.000 1.000
51.060 2185.000 1.000
51.080 2229.000 1.000
51.100 2159.000 1.000
51.120 2100.000 1.000
51.140 2195.000 1.000
51.160 2236.000 1.000
51.180 2170.000 1.000
51.200 2141.000 1.000
51.220 2162.000 1.000
51.240 2204.000 1.000
51.260 2233.000 1.000
51.280 2222.000 1.000
51.300 2196.000 1.000
51.320 2188.000 1.000
51.340 2208.000 1.000
51.360 2169.000 1.000
51.380 2154.000 1.000
51.400 2165.000 1.000
51.420 2195.000 1.000
51.440 2260.000 1.000
51.460 2267.000 1.000
51.480 2225.000 1.000
51.500 2190.000 1.000
51.520 2168.000 1.000
51.540 2165.000 1.000
51.560 2162.000 1.000
51.580 2184.000 1.000
51.600 2219.000 1.000
51.620 2220.000 1.000
51.640 2202.000 1.000
51.660 2231.000 1.000
51.680 2271.000 1.000
51.700 2231.000 1.000
51.720 2208.000 1.000
51.740 2241.000 1.000
51.760 2224.000 1.000
51.780 2199.000 1.000
51.800 2242.000 1.000
51.820 2265.000 1.000
51.840 2268.000 1.000
51.860 2233.000 1.000
51.880 2188.000 1.000
51.900 2202.000 1.000
51.920 2226.000 1.000
51.940 2189.000 1.000
51.960 2181.000 1.000
51.980 2195.000 1.000
52.000 2233.000 1.000
52.020 2250.000 1.000
52.040 2246.000 1.000
52.060 2230.000 1.000
52.080 2223.000 1.000
52.100 2196.000 1.000
52.120 2189.000 1.000
52.140 2168.000 1.000
52.160 2140.000 1.000
52.180 2135.000 1.000
52.200 2226.000 1.000
52.220 2223.000 1.000
52.240 2183.000 1.000
52.260 2174.000 1.000
52.280 2142.000 1.000
52.300 2179.000 1.000
52.320 2227.000 1.000
52.340 2225.000 1.000
52.360 2190.000 1.000
52.380 2207.000 1.000
52.400 2247.000 1.000
52.420 2221.000 1.000
52.440 2153.000 1.000
52.460 2197.000 1.000
52.480 2249.000 1.000
52.500 2246.000 1.000
52.520 2211.000 1.000
52.540 2199.000 1.000
52.560 2232.000 1.000
52.580 2229.000 1.000
52.600 2186.000 1.000
52.620 2176.000 1.000
52.640 2200.000 1.000
52.660 2184.000 1.000
52.680 2193.000 1.000
52.700 2230.000 1.000
52.720 2205.000 1.000
52.740 2154.000 1.000
52.760 2163.000 1.000
52.780 2215.000 1.000
52.800 2262.000 1.000
52.820 2228.000 1.000
52.840 2181.000 1.000
52.860 2180.000 1.000
52.880 2200.000 1.000
52.900 2234.000 1.000
52.920 2253.000 1.000
52.940 2245.000 1.000
52.960 2260.000 1.000
52.980 2291.000 1.000
53.000 2302.000 1.000
53.020 2307.000 1.000
53.040 2308.000 1.000
53.060 2321.000 1.000
53.080 2293.000 1.000
53.100 2236.000 1.000
53.120 2233.000 1.000
53.140 2285.000 1.000
53.160 2302.000 1.000
53.180 2270.000 1.000
53.200 2255.000 1.000
53.220 2242.000 1.000
53.240 2232.000 1.000
53.260 2226.000 1.000
53.280 2200.000 1.000
53.300 2197.000 1.000
53.320 2224.000 1.000
53.340 2245.000 1.000
53.360 2254.000 1.000
53.380 2269.000 1.000
53.400 2270.000 1.000
53.420 2258.000 1.000
53.440 2284.000 1.000
53.460 2294.000 1.000
53.480 2243.000 1.000
53.500 2221.000 1.000
53.520 2223.000 1.000
53.540 2292.000 1.000
53.560 2350.000 1.000
53.580 2321.000 1.000
53.600 2289.000 1.000
53.620 2309.000 1.000
53.640 2332.000 1.000
53.660 2378.000 1.000
53.680 2419.000 1.000
53.700 2424.000 1.000
53.720 2440.000 1.000
53.740 2464.000 1.000
53.760 2484.000 1.000
53.780 2525.000 1.000
53.800 2632.000 1.000
53.820 2689.000 1.000
53.840 2654.000 1.000
53.860 2692.000 1.000
53.880 2860.000 1.000
53.900 3027.000 1.000
53.920 3173.000 1.000
53.940 3334.000 1.000
53.960 3482.000 1.000
53.980 3582.000 1.000
54.000 3550.000 1.000
54.020 3399.000 1.000
54.040 3264.000 1.000
54.060 3228.000 1.000
54.080 3240.000 1.000
54.100 3210.000 1.000
54.120 3139.000 1.000
54.140 3122.000 1.000
54.160 3059.000 1.000
54.180 2897.000 1.000
54.200 2737.000 1.000
54.220 2664.000 1.000
54.240 2630.000 1.000
54.260 2562.000 1.000
54.280 2499.000 1.000
54.300 2508.000 1.000
54.320 2531.000 1.000
54.340 2461.000 1.000
54.360 2370.000 1.000
54.380 2329.000 1.000
54.400 2343.000 1.000
54.420 2354.000 1.000
54.440 2325.000 1.000
54.460 2295.000 1.000
54.480 2299.000 1.000
54.500 2320.000 1.000
54.520 2326.000 1.000
54.540 2290.000 1.000
54.560 2270.000 1.000
54.580 2288.000 1.000
54.600 2249.000 1.000
54.620 2205.000 1.000
54.640 2260.000 1.000
54.660 2304.000 1.000
54.680 2283.000 1.000
54.700 2245.000 1.000
54.720 2240.000 1.000
54.740 2288.000 1.000
54.760 2272.000 1.000
54.780 2240.000 1.000
54.800 2236.000 1.000
54.820 2270.000 1.000
54.840 2275.000 1.000
54.860 2210.000 1.000
54.880 2278.000 1.000
54.900 2270.000 1.000
54.920 2175.000 1.000
54.940 2183.000 1.000
54.960 2157.000 1.000
54.980 2163.000 1.000
55.000 2210.000 1.000
55.020 2210.000 1.000
55.040 2223.000 1.000
55.060 2229.000 1.000
55.080 2252.000 1.000
55.100 2268.000 1.000
55.120 2220.000 1.000
55.140 2186.000 1.000
55.160 2171.000 1.000
55.180 2212.000 1.000
55.200 2219.000 1.000
55.220 2185.000 1.000
55.240 2214.000 1.000
55.260 2242.000 1.000
55.280 2226.000 1.000
55.300 2189.000 1.000
55.320 2170.000 1.000
55.340 2195.000 1.000
55.360 2186.000 1.000
55.380 2152.000 1.000
55.400 2136.000 1.000
55.420 2146.000 1.000
55.440 2207.000 1.000
55.460 2224.000 1.000
55.480 2179.000 1.000
55.500 2168.000 1.000
55.520 2205.000 1.000
55.540 2226.000 1.000
55.560 2205.000 1.000
55.580 2228.000 1.000
55.600 2236.000 1.000
55.620 2239.000 1.000
55.640 2218.000 1.000
55.660 2227.000 1.000
55.680 2234.000 1.000
55.700 2232.000 1.000
55.720 2229.000 1.000
55.740 2192.000 1.000
55.760 2147.000 1.000
55.780 2171.000 1.000
55.800 2230.000 1.000
55.820 2236.000 1.000
55.840 2235.000 1.000
55.860 2210.000 1.000
55.880 2202.000 1.000
55.900 2196.000 1.000
55.920 2166.000 1.000
55.940 2204.000 1.000
55.960 2250.000 1.000
55.980 2230.000 1.000
56.000 2221.000 1.000
56.020 2272.000 1.000
56.040 2256.000 1.000
56.060 2234.000 1.000
56.080 2253.000 1.000
56.100 2240.000 1.000
56.120 2227.000 1.000
56.140 2229.000 1.000
56.160 2208.000 1.000
56.180 2175.000 1.000
56.200 2221.000 1.000
56.220 2276.000 1.000
56.240 2260.000 1.000
56.260 2290.000 1.000
56.280 2280.000 1.000
56.300 2258.000 1.000
56.320 2273.000 1.000
56.340 2313.000 1.000
56.360 2381.000 1.000
56.380 2434.000 1.000
56.400 2511.000 1.000
56.420 2581.000 1.000
56.440 2652.000 1.000
56.460 2813.000 1.000
56.480 2929.000 1.000
56.500 3010.000 1.000
56.520 3031.000 1.000
56.540 2947.000 1.000
56.560 2754.000 1.000
56.580 2626.000 1.000
56.600 2632.000 1.000
56.620 2712.000 1.000
56.640 2754.000 1.000
56.660 2729.000 1.000
56.680 2711.000 1.000
56.700 2577.000 1.000
56.720 2439.000 1.000
56.740 2380.000 1.000
56.760 2344.000 1.000
56.780 2343.000 1.000
56.800 2316.000 1.000
56.820 2260.000 1.000
56.840 2244.000 1.000
56.860 2263.000 1.000
56.880 2233.000 1.000
56.900 2260.000 1.000
56.920 2304.000 1.000
56.940 2291.000 1.000
56.960 2260.000 1.000
56.980 2279.000 1.000
57.000 2284.000 1.000
57.020 2255.000 1.000
57.040 2259.000 1.000
57.060 2258.000 1.000
57.080 2242.000 1.000
57.100 2253.000 1.000
57.120 2294.000 1.000
57.140 2310.000 1.000
57.160 2319.000 1.000
57.180 2272.000 1.000
57.200 2223.000 1.000
57.220 2220.000 1.000
57.240 2289.000 1.000
57.260 2283.000 1.000
57.280 2274.000 1.000
57.300 2327.000 1.000
57.320 2365.000 1.000
57.340 2349.000 1.000
57.360 2350.000 1.000
57.380 2348.000 1.000
57.400 2384.000 1.000
57.420 2440.000 1.000
57.440 2469.000 1.000
57.460 2482.000 1.000
57.480 2447.000 1.000
57.500 2464.000 1.000
57.520 2481.000 1.000
57.540 2503.000 1.000
57.560 2488.000 1.000
57.580 2457.000 1.000
57.600 2444.000 1.000
57.620 2429.000 1.000
57.640 2359.000 1.000
57.660 2327.000 1.000
57.680 2365.000 1.000
57.700 2339.000 1.000
57.720 2313.000 1.000
57.740 2307.000 1.000
57.760 2302.000 1.000
57.780 2288.000 1.000
57.800 2297.000 1.000
57.820 2324.000 1.000
57.840 2293.000 1.000
57.860 2263.000 1.000
57.880 2230.000 1.000
57.900 2260.000 1.000
57.920 2252.000 1.000
57.940 2223.000 1.000
57.960 2245.000 1.000
57.980 2203.000 1.000
58.000 2196.000 1.000
58.020 2195.000 1.000
58.040 2211.000 1.000
58.060 2235.000 1.000
58.080 2224.000 1.000
58.100 2210.000 1.000
58.120 2164.000 1.000
58.140 2165.000 1.000
58.160 2250.000 1.000
58.180 2268.000 1.000
58.200 2223.000 1.000
58.220 2221.000 1.000
58.240 2235.000 1.000
58.260 2198.000 1.000
58.280 2185.000 1.000
58.300 2184.000 1.000
58.320 2188.000 1.000
58.340 2255.000 1.000
58.360 2224.000 1.000
58.380 2183.000 1.000
58.400 2171.000 1.000
58.420 2181.000 1.000
58.440 2186.000 1.000
58.460 2186.000 1.000
58.480 2205.000 1.000
58.500 2195.000 1.000
58.520 2163.000 1.000
58.540 2169.000 1.000
58.560 2213.000 1.000
58.580 2207.000 1.000
58.600 2147.000 1.000
58.620 2180.000 1.000
58.640 2197.000 1.000
58.660 2196.000 1.000
58.680 2190.000 1.000
58.700 2163.000 1.000
58.720 2201.000 1.000
58.740 2156.000 1.000
58.760 2126.000 1.000
58.780 2212.000 1.000
58.800 2226.000 1.000
58.820 2216.000 1.000
58.840 2222.000 1.000
58.860 2191.000 1.000
58.880 2205.000 1.000
58.900 2176.000 1.000
58.920 2191.000 1.000
58.940 2232.000 1.000
58.960 2185.000 1.000
58.980 2139.000 1.000
59.000 2152.000 1.000
59.020 2172.000 1.000
59.040 2200.000 1.000
59.060 2201.000 1.000
59.080 2206.000 1.000
59.100 2197.000 1.000
59.120 2183.000 1.000
59.140 2143.000 1.000
59.160 2144.000 1.000
59.180 2182.000 1.000
59.200 2202.000 1.000
59.220 2213.000 1.000
59.240 2182.000 1.000
59.260 2193.000 1.000
59.280 2185.000 1.000
59.300 2231.000 1.000
59.320 2249.000 1.000
59.340 2221.000 1.000
59.360 2209.000 1.000
59.380 2172.000 1.000
59.400 2167.000 1.000
59.420 2228.000 1.000
59.440 2254.000 1.000
59.460 2214.000 1.000
59.480 2227.000 1.000
59.500 2220.000 1.000
59.520 2177.000 1.000
59.540 2197.000 1.000
59.560 2224.000 1.000
59.580 2209.000 1.000
59.600 2176.000 1.000
59.620 2158.000 1.000
59.640 2174.000 1.000
59.660 2142.000 1.000
59.680 2114.000 1.000
59.700 2131.000 1.000
59.720 2168.000 1.000
59.740 2191.000 1.000
59.760 2213.000 1.000
59.780 2194.000 1.000
59.800 2148.000 1.000
59.820 2194.000 1.000
59.840 2273.000 1.000
59.860 2256.000 1.000
59.880 2163.000 1.000
59.900 2174.000 1.000
59.920 2195.000 1.000
59.940 2182.000 1.000
59.960 2175.000 1.000
59.980 2151.000 1.000
60.000 2200.000 1.000
60.020 2226.000 1.000
60.040 2189.000 1.000
60.060 2198.000 1.000
60.080 2215.000 1.000
60.100 2220.000 1.000
60.120 2214.000 1.000
60.140 2191.000 1.000
60.160 2183.000 1.000
60.180 2184.000 1.000
60.200 2156.000 1.000
60.220 2138.000 1.000
60.240 2131.000 1.000
60.260 2153.000 1.000
60.280 2233.000 1.000
60.300 2209.000 1.000
60.320 2159.000 1.000
60.340 2148.000 1.000
60.360 2153.000 1.000
60.380 2178.000 1.000
60.400 2170.000 1.000
60.420 2184.000 1.000
60.440 2171.000 1.000
60.460 2231.000 1.000
60.480 2202.000 1.000
60.500 2193.000 1.000
60.520 2237.000 1.000
60.540 2233.000 1.000
60.560 2249.000 1.000
60.580 2193.000 1.000
60.600 2202.000 1.000
60.620 2211.000 1.000
60.640 2236.000 1.000
60.660 2191.000 1.000
60.680 2172.000 1.000
60.700 2213.000 1.000
60.720 2169.000 1.000
60.740 2176.000 1.000
60.760 2164.000 1.000
60.780 2185.000 1.000
60.800 2200.000 1.000
60.820 2196.000 1.000
60.840 2218.000 1.000
60.860 2265.000 1.000
60.880 2214.000 1.000
60.900 2202.000 1.000
60.920 2199.000 1.000
60.940 2155.000 1.000
60.960 2212.000 1.000
60.980 2224.000 1.000
61.000 2198.000 1.000
61.020 2164.000 1.000
61.040 2204.000 1.000
61.060 2224.000 1.000
61.080 2182.000 1.000
61.100 2191.000 1.000
61.120 2149.000 1.000
61.140 2148.000 1.000
61.160 2224.000 1.000
61.180 2163.000 1.000
61.200 2214.000 1.000
61.220 2246.000 1.000
61.240 2209.000 1.000
61.260 2168.000 1.000
61.280 2145.000 1.000
61.300 2193.000 1.000
61.320 2185.000 1.000
61.340 2179.000 1.000
61.360 2129.000 1.000
61.380 2167.000 1.000
61.400 2166.000 1.000
61.420 2102.000 1.000
61.440 2156.000 1.000
61.460 2143.000 1.000
61.480 2204.000 1.000
61.500 2193.000 1.000
61.520 2181.000 1.000
61.540 2187.000 1.000
61.560 2215.000 1.000
61.580 2250.000 1.000
61.600 2231.000 1.000
61.620 2240.000 1.000
61.640 2224.000 1.000
61.660 2252.000 1.000
61.680 2272.000 1.000
61.700 2257.000 1.000
61.720 2254.000 1.000
61.740 2283.000 1.000
61.760 2265.000 1.000
61.780 2281.000 1.000
61.800 2303.000 1.000
61.820 2318.000 1.000
61.840 2285.000 1.000
61.860 2276.000 1.000
61.880 2336.000 1.000
61.900 2306.000 1.000
61.920 2293.000 1.000
61.940 2383.000 1.000
61.960 2399.000 1.000
61.980 2427.000 1.000
62.000 2505.000 1.000
62.020 2542.000 1.000
62.040 2554.000 1.000
62.060 2560.000 1.000
62.080 2541.000 1.000
62.100 2584.000 1.000
62.120 2638.000 1.000
62.140 2642.000 1.000
62.160 2656.000 1.000
62.180 2707.000 1.000
62.200 2707.000 1.000
62.220 2761.000 1.000
62.240 2802.000 1.000
62.260 2850.000 1.000
62.280 2943.000 1.000
62.300 3066.000 1.000
62.320 3143.000 1.000
62.340 3217.000 1.000
62.360 3208.000 1.000
62.380 3118.000 1.000
62.400 2971.000 1.000
62.420 2910.000 1.000
62.440 2824.000 1.000
62.460 2842.000 1.000
62.480 2842.000 1.000
62.500 2868.000 1.000
62.520 2848.000 1.000
62.540 2743.000 1.000
62.560 2709.000 1.000
62.580 2662.000 1.000
62.600 2580.000 1.000
62.620 2624.000 1.000
62.640 2572.000 1.000
62.660 2541.000 1.000
62.680 2552.000 1.000
62.700 2546.000 1.000
62.720 2543.000 1.000
62.740 2605.000 1.000
62.760 2552.000 1.000
62.780 2532.000 1.000
62.800 2474.000 1.000
62.820 2390.000 1.000
62.840 2346.000 1.000
62.860 2326.000 1.000
62.880 2354.000 1.000
62.900 2358.000 1.000
62.920 2419.000 1.000
62.940 2434.000 1.000
62.960 2412.000 1.000
62.980 2366.000 1.000
63.000 2322.000 1.000
63.020 2275.000 1.000
63.040 2273.000 1.000
63.060 2247.000 1.000
63.080 2243.000 1.000
63.100 2267.000 1.000
63.120 2216.000 1.000
63.140 2302.000 1.000
63.160 2322.000 1.000
63.180 2263.000 1.000
63.200 2233.000 1.000
63.220 2245.000 1.000
63.240 2242.000 1.000
63.260 2270.000 1.000
63.280 2284.000 1.000
63.300 2281.000 1.000
63.320 2311.000 1.000
63.340 2225.000 1.000
63.360 2251.000 1.000
63.380 2277.000 1.000
63.400 2299.000 1.000
63.420 2283.000 1.000
63.440 2284.000 1.000
63.460 2229.000 1.000
63.480 2230.000 1.000
63.500 2262.000 1.000
63.520 2232.000 1.000
63.540 2283.000 1.000
63.560 2278.000 1.000
63.580 2319.000 1.000
63.600 2316.000 1.000
63.620 2331.000 1.000
63.640 2372.000 1.000
63.660 2380.000 1.000
63.680 2480.000 1.000
63.700 2481.000 1.000
63.720 2447.000 1.000
63.740 2470.000 1.000
63.760 2497.000 1.000
63.780 2594.000 1.000
63.800 2609.000 1.000
63.820 2665.000 1.000
63.840 2747.000 1.000
63.860 2856.000 1.000
63.880 2948.000 1.000
63.900 3000.000 1.000
63.920 3034.000 1.000
63.940 3009.000 1.000
63.960 2991.000 1.000
63.980 2956.000 1.000
64.000 2961.000 1.000
64.020 2874.000 1.000
64.040 2782.000 1.000
64.060 2797.000 1.000
64.080 2808.000 1.000
64.100 2819.000 1.000
64.120 2696.000 1.000
64.140 2631.000 1.000
64.160 2611.000 1.000
64.180 2562.000 1.000
64.200 2525.000 1.000
64.220 2493.000 1.000
64.240 2505.000 1.000
64.260 2433.000 1.000
64.280 2403.000 1.000
64.300 2386.000 1.000
64.320 2360.000 1.000
64.340 2298.000 1.000
64.360 2332.000 1.000
64.380 2311.000 1.000
64.400 2333.000 1.000
64.420 2312.000 1.000
64.440 2265.000 1.000
64.460 2284.000 1.000
64.480 2240.000 1.000
64.500 2227.000 1.000
64.520 2250.000 1.000
64.540 2252.000 1.000
64.560 2274.000 1.000
64.580 2221.000 1.000
64.600 2212.000 1.000
64.620 2191.000 1.000
64.640 2199.000 1.000
64.660 2246.000 1.000
64.680 2220.000 1.000
64.700 2183.000 1.000
64.720 2207.000 1.000
64.740 2170.000 1.000
64.760 2182.000 1.000
64.780 2179.000 1.000
64.800 2236.000 1.000
64.820 2212.000 1.000
64.840 2161.000 1.000
64.860 2223.000 1.000
64.880 2206.000 1.000
64.900 2173.000 1.000
64.920 2164.000 1.000
64.940 2214.000 1.000
64.960 2217.000 1.000
64.980 2192.000 1.000
65.000 2194.000 1.000
65.020 2215.000 1.000
65.040 2148.000 1.000
65.060 2261.000 1.000
65.080 2246.000 1.000
65.100 2215.000 1.000
65.120 2248.000 1.000
65.140 2204.000 1.000
65.160 2155.000 1.000
65.180 2220.000 1.000
65.200 2240.000 1.000
65.220 2207.000 1.000
65.240 2187.000 1.000
65.260 2226.000 1.000
65.280 2263.000 1.000
65.300 2276.000 1.000
65.320 2233.000 1.000
65.340 2194.000 1.000
65.360 2199.000 1.000
65.380 2182.000 1.000
65.400 2176.000 1.000
65.420 2194.000 1.000
65.440 2156.000 1.000
65.460 2171.000 1.000
65.480 2236.000 1.000
65.500 2162.000 1.000
65.520 2203.000 1.000
65.540 2208.000 1.000
65.560 2201.000 1.000
65.580 2161.000 1.000
65.600 2225.000 1.000
65.620 2243.000 1.000
65.640 2243.000 1.000
65.660 2272.000 1.000
65.680 2268.000 1.000
65.700 2221.000 1.000
65.720 2167.000 1.000
65.740 2168.000 1.000
65.760 2275.000 1.000
65.780 2267.000 1.000
65.800 2224.000 1.000
65.820 2221.000 1.000
65.840 2220.000 1.000
65.860 2205.000 1.000
65.880 2195.000 1.000
65.900 2205.000 1.000
65.920 2203.000 1.000
65.940 2211.000 1.000
65.960 2249.000 1.000
65.980 2224.000 1.000
66.000 2262.000 1.000
66.020 2212.000 1.000
66.040 2218.000 1.000
66.060 2264.000 1.000
66.080 2235.000 1.000
66.100 2259.000 1.000
66.120 2244.000 1.000
66.140 2237.000 1.000
66.160 2219.000 1.000
66.180 2227.000 1.000
66.200 2233.000 1.000
66.220 2285.000 1.000
66.240 2402.000 1.000
66.260 2426.000 1.000
66.280 2472.000 1.000
66.300 2401.000 1.000
66.320 2341.000 1.000
66.340 2327.000 1.000
66.360 2235.000 1.000
66.380 2233.000 1.000
66.400 2250.000 1.000
66.420 2293.000 1.000
66.440 2353.000 1.000
66.460 2375.000 1.000
66.480 2339.000 1.000
66.500 2254.000 1.000
66.520 2291.000 1.000
66.540 2196.000 1.000
66.560 2167.000 1.000
66.580 2207.000 1.000
66.600 2212.000 1.000
66.620 2208.000 1.000
66.640 2185.000 1.000
66.660 2216.000 1.000
66.680 2222.000 1.000
66.700 2190.000 1.000
66.720 2161.000 1.000
66.740 2227.000 1.000
66.760 2195.000 1.000
66.780 2207.000 1.000
66.800 2167.000 1.000
66.820 2136.000 1.000
66.840 2215.000 1.000
66.860 2213.000 1.000
66.880 2226.000 1.000
66.900 2190.000 1.000
66.920 2119.000 1.000
66.940 2155.000 1.000
66.960 2199.000 1.000
66.980 2218.000 1.000
67.000 2222.000 1.000
67.020 2204.000 1.000
67.040 2215.000 1.000
67.060 2226.000 1.000
67.080 2268.000 1.000
67.100 2217.000 1.000
67.120 2188.000 1.000
67.140 2246.000 1.000
67.160 2265.000 1.000
67.180 2245.000 1.000
67.200 2189.000 1.000
67.220 2230.000 1.000
67.240 2169.000 1.000
67.260 2202.000 1.000
67.280 2217.000 1.000
67.300 2250.000 1.000
67.320 2173.000 1.000
67.340 2193.000 1.000
67.360 2197.000 1.000
67.380 2166.000 1.000
67.400 2177.000 1.000
67.420 2188.000 1.000
67.440 2146.000 1.000
67.460 2228.000 1.000
67.480 2209.000 1.000
67.500 2197.000 1.000
67.520 2233.000 1.000
67.540 2146.000 1.000
67.560 2168.000 1.000
67.580 2182.000 1.000
67.600 2217.000 1.000
67.620 2231.000 1.000
67.640 2279.000 1.000
67.660 2266.000 1.000
67.680 2192.000 1.000
67.700 2216.000 1.000
67.720 2255.000 1.000
67.740 2242.000 1.000
67.760 2233.000 1.000
67.780 2281.000 1.000
67.800 2231.000 1.000
67.820 2276.000 1.000
67.840 2313.000 1.000
67.860 2297.000 1.000
67.880 2252.000 1.000
67.900 2245.000 1.000
67.920 2207.000 1.000
67.940 2200.000 1.000
67.960 2256.000 1.000
67.980 2230.000 1.000
68.000 2212.000 1.000
68.020 2266.000 1.000
68.040 2249.000 1.000
68.060 2225.000 1.000
68.080 2200.000 1.000
68.100 2232.000 1.000
68.120 2179.000 1.000
68.140 2217.000 1.000
68.160 2243.000 1.000
68.180 2188.000 1.000
68.200 2208.000 1.000
68.220 2137.000 1.000
68.240 2181.000 1.000
68.260 2231.000 1.000
68.280 2230.000 1.000
68.300 2196.000 1.000
68.320 2164.000 1.000
68.340 2224.000 1.000
68.360 2208.000 1.000
68.380 2205.000 1.000
68.400 2192.000 1.000
68.420 2192.000 1.000
68.440 2168.000 1.000
68.460 2179.000 1.000
68.480 2184.000 1.000
68.500 2216.000 1.000
68.520 2221.000 1.000
68.540 2222.000 1.000
68.560 2192.000 1.000
68.580 2237.000 1.000
68.600 2219.000 1.000
68.620 2199.000 1.000
68.640 2191.000 1.000
68.660 2187.000 1.000
68.680 2176.000 1.000
68.700 2142.000 1.000
68.720 2196.000 1.000
68.740 2160.000 1.000
68.760 2130.000 1.000
68.780 2194.000 1.000
68.800 2212.000 1.000
68.820 2252.000 1.000
68.840 2225.000 1.000
68.860 2240.000 1.000
68.880 2255.000 1.000
68.900 2219.000 1.000
68.920 2249.000 1.000
68.940 2297.000 1.000
68.960 2241.000 1.000
68.980 2241.000 1.000
69.000 2296.000 1.000
69.020 2327.000 1.000
69.040 2254.000 1.000
69.060 2239.000 1.000
69.080 2209.000 1.000
69.100 2284.000 1.000
69.120 2259.000 1.000
69.140 2243.000 1.000
69.160 2268.000 1.000
69.180 2282.000 1.000
69.200 2237.000 1.000
69.220 2239.000 1.000
69.240 2197.000 1.000
69.260 2172.000 1.000
69.280 2205.000 1.000
69.300 2179.000 1.000
69.320 2157.000 1.000
69.340 2260.000 1.000
69.360 2211.000 1.000
69.380 2258.000 1.000
69.400 2227.000 1.000
69.420 2260.000 1.000
69.440 2236.000 1.000
69.460 2241.000 1.000
69.480 2279.000 1.000
69.500 2266.000 1.000
69.520 2225.000 1.000
69.540 2228.000 1.000
69.560 2188.000 1.000
69.580 2181.000 1.000
69.600 2196.000 1.000
69.620 2220.000 1.000
69.640 2241.000 1.000
69.660 2286.000 1.000
69.680 2280.000 1.000
69.700 2228.000 1.000
69.720 2238.000 1.000
69.740 2236.000 1.000
69.760 2253.000 1.000
69.780 2241.000 1.000
69.800 2207.000 1.000
69.820 2224.000 1.000
69.840 2237.000 1.000
69.860 2198.000 1.000
69.880 2207.000 1.000
69.900 2190.000 1.000
69.920 2191.000 1.000
69.940 2235.000 1.000
69.960 2236.000 1.000
69.980 2245.000 1.000
70.000 2175.000 1.000
70.020 2175.000 1.000
70.040 2165.000 1.000
70.060 2175.000 1.000
70.080 2238.000 1.000
70.100 2233.000 1.000
70.120 2103.000 1.000
70.140 2124.000 1.000
70.160 2143.000 1.000
70.180 2213.000 1.000
70.200 2157.000 1.000
70.220 2163.000 1.000
70.240 2213.000 1.000
70.260 2215.000 1.000
70.280 2214.000 1.000
70.300 2195.000 1.000
70.320 2183.000 1.000
70.340 2179.000 1.000
70.360 2197.000 1.000
70.380 2214.000 1.000
70.400 2158.000 1.000
70.420 2205.000 1.000
70.440 2208.000 1.000
70.460 2200.000 1.000
70.480 2257.000 1.000
70.500 2162.000 1.000
70.520 2216.000 1.000
70.540 2266.000 1.000
70.560 2121.000 1.000
70.580 2148.000 1.000
70.600 2175.000 1.000
70.620 2197.000 1.000
70.640 2252.000 1.000
70.660 2200.000 1.000
70.680 2151.000 1.000
70.700 2166.000 1.000
70.720 2142.000 1.000
70.740 2142.000 1.000
70.760 2191.000 1.000
70.780 2151.000 1.000
70.800 2229.000 1.000
70.820 2173.000 1.000
70.840 2221.000 1.000
70.860 2270.000 1.000
70.880 2190.000 1.000
70.900 2167.000 1.000
70.920 2180.000 1.000
70.940 2210.000 1.000
70.960 2206.000 1.000
70.980 2213.000 1.000
71.000 2192.000 1.000
71.020 2198.000 1.000
71.040 2234.000 1.000
71.060 2196.000 1.000
71.080 2251.000 1.000
71.100 2223.000 1.000
71.120 2160.000 1.000
71.140 2186.000 1.000
71.160 2175.000 1.000
71.180 2240.000 1.000
71.200 2220.000 1.000
71.220 2217.000 1.000
71.240 2181.000 1.000
71.260 2239.000 1.000
71.280 2238.000 1.000
71.300 2243.000 1.000
71.320 2249.000 1.000
71.340 2198.000 1.000
71.360 2236.000 1.000
71.380 2185.000 1.000
71.400 2184.000 1.000
71.420 2165.000 1.000
71.440 2261.000 1.000
71.460 2241.000 1.000
71.480 2175.000 1.000
71.500 2237.000 1.000
71.520 2271.000 1.000
71.540 2206.000 1.000
71.560 2278.000 1.000
71.580 2295.000 1.000
71.600 2193.000 1.000
71.620 2240.000 1.000
71.640 2191.000 1.000
71.660 2300.000 1.000
71.680 2297.000 1.000
71.700 2341.000 1.000
71.720 2334.000 1.000
71.740 2321.000 1.000
71.760 2361.000 1.000
71.780 2348.000 1.000
71.800 2357.000 1.000
71.820 2480.000 1.000
71.840 2474.000 1.000
71.860 2471.000 1.000
71.880 2429.000 1.000
71.900 2385.000 1.000
71.920 2393.000 1.000
71.940 2386.000 1.000
71.960 2354.000 1.000
71.980 2322.000 1.000
72.000 2336.000 1.000
72.020 2317.000 1.000
72.040 2366.000 1.000
72.060 2413.000 1.000
72.080 2439.000 1.000
72.100 2400.000 1.000
72.120 2362.000 1.000
72.140 2308.000 1.000
72.160 2320.000 1.000
72.180 2335.000 1.000
72.200 2311.000 1.000
72.220 2274.000 1.000
72.240 2326.000 1.000
72.260 2298.000 1.000
72.280 2335.000 1.000
72.300 2321.000 1.000
72.320 2228.000 1.000
72.340 2254.000 1.000
72.360 2297.000 1.000
72.380 2252.000 1.000
72.400 2260.000 1.000
72.420 2283.000 1.000
72.440 2249.000 1.000
72.460 2247.000 1.000
72.480 2232.000 1.000
72.500 2247.000 1.000
72.520 2228.000 1.000
72.540 2226.000 1.000
72.560 2211.000 1.000
72.580 2271.000 1.000
72.600 2232.000 1.000
72.620 2217.000 1.000
72.640 2255.000 1.000
72.660 2209.000 1.000
72.680 2246.000 1.000
72.700 2190.000 1.000
72.720 2188.000 1.000
72.740 2242.000 1.000
72.760 2188.000 1.000
72.780 2228.000 1.000
72.800 2219.000 1.000
72.820 2199.000 1.000
72.840 2179.000 1.000
72.860 2232.000 1.000
72.880 2151.000 1.000
72.900 2207.000 1.000
72.920 2201.000 1.000
72.940 2271.000 1.000
72.960 2189.000 1.000
72.980 2215.000 1.000
73.000 2232.000 1.000
73.020 2182.000 1.000
73.040 2162.000 1.000
73.060 2132.000 1.000
73.080 2150.000 1.000
73.100 2238.000 1.000
73.120 2291.000 1.000
73.140 2330.000 1.000
73.160 2277.000 1.000
73.180 2284.000 1.000
73.200 2210.000 1.000
73.220 2167.000 1.000
73.240 2212.000 1.000
73.260 2225.000 1.000
73.280 2195.000 1.000
73.300 2214.000 1.000
73.320 2207.000 1.000
73.340 2263.000 1.000
73.360 2175.000 1.000
73.380 2246.000 1.000
73.400 2225.000 1.000
73.420 2235.000 1.000
73.440 2285.000 1.000
73.460 2312.000 1.000
73.480 2272.000 1.000
73.500 2246.000 1.000
73.520 2230.000 1.000
73.540 2181.000 1.000
73.560 2220.000 1.000
73.580 2232.000 1.000
73.600 2250.000 1.000
73.620 2288.000 1.000
73.640 2276.000 1.000
73.660 2230.000 1.000
73.680 2224.000 1.000
73.700 2211.000 1.000
73.720 2190.000 1.000
73.740 2158.000 1.000
73.760 2170.000 1.000
73.780 2177.000 1.000
73.800 2205.000 1.000
73.820 2198.000 1.000
73.840 2157.000 1.000
73.860 2139.000 1.000
73.880 2197.000 1.000
73.900 2255.000 1.000
73.920 2189.000 1.000
73.940 2165.000 1.000
73.960 2117.000 1.000
73.980 2206.000 1.000
74.000 2209.000 1.000
74.020 2203.000 1.000
74.040 2211.000 1.000
74.060 2157.000 1.000
74.080 2149.000 1.000
74.100 2137.000 1.000
74.120 2151.000 1.000
74.140 2197.000 1.000
74.160 2202.000 1.000
74.180 2167.000 1.000
74.200 2167.000 1.000
74.220 2150.000 1.000
74.240 2187.000 1.000
74.260 2217.000 1.000
74.280 2192.000 1.000
74.300 2175.000 1.000
74.320 2191.000 1.000
74.340 2125.000 1.000
74.360 2150.000 1.000
74.380 2203.000 1.000
74.400 2217.000 1.000
74.420 2134.000 1.000
74.440 2245.000 1.000
74.460 2238.000 1.000
74.480 2255.000 1.000
74.500 2285.000 1.000
74.520 2221.000 1.000
74.540 2191.000 1.000
74.560 2242.000 1.000
74.580 2163.000 1.000
74.600 2250.000 1.000
74.620 2154.000 1.000
74.640 2186.000 1.000
74.660 2223.000 1.000
74.680 2166.000 1.000
74.700 2145.000 1.000
74.720 2259.000 1.000
74.740 2232.000 1.000
74.760 2279.000 1.000
74.780 2176.000 1.000
74.800 2189.000 1.000
74.820 2187.000 1.000
74.840 2203.000 1.000
74.860 2186.000 1.000
74.880 2209.000 1.000
74.900 2250.000 1.000
74.920 2277.000 1.000
74.940 2246.000 1.000
74.960 2222.000 1.000
74.980 2239.000 1.000
75.000 2247.000 1.000
75.020 2250.000 1.000
75.040 2256.000 1.000
75.060 2300.000 1.000
75.080 2161.000 1.000
75.100 2286.000 1.000
75.120 2245.000 1.000
75.140 2339.000 1.000
75.160 2303.000 1.000
75.180 2344.000 1.000
75.200 2375.000 1.000
75.220 2299.000 1.000
75.240 2309.000 1.000
75.260 2297.000 1.000
75.280 2306.000 1.000
75.300 2311.000 1.000
75.320 2361.000 1.000
75.340 2338.000 1.000
75.360 2331.000 1.000
75.380 2379.000 1.000
75.400 2357.000 1.000
75.420 2350.000 1.000
75.440 2307.000 1.000
75.460 2294.000 1.000
75.480 2352.000 1.000
75.500 2321.000 1.000
75.520 2345.000 1.000
75.540 2326.000 1.000
75.560 2255.000 1.000
75.580 2349.000 1.000
75.600 2275.000 1.000
75.620 2245.000 1.000
75.640 2341.000 1.000
75.660 2276.000 1.000
75.680 2306.000 1.000
75.700 2237.000 1.000
75.720 2256.000 1.000
75.740 2222.000 1.000
75.760 2173.000 1.000
75.780 2201.000 1.000
75.800 2183.000 1.000
75.820 2181.000 1.000
75.840 2193.000 1.000
75.860 2197.000 1.000
75.880 2253.000 1.000
75.900 2325.000 1.000
75.920 2243.000 1.000
75.940 2138.000 1.000
75.960 2183.000 1.000
75.980 2233.000 1.000
76.000 2180.000 1.000
76.020 2149.000 1.000
76.040 2178.000 1.000
76.060 2196.000 1.000
76.080 2188.000 1.000
76.100 2178.000 1.000
76.120 2199.000 1.000
76.140 2209.000 1.000
76.160 2152.000 1.000
76.180 2184.000 1.000
76.200 2302.000 1.000
76.220 2196.000 1.000
76.240 2199.000 1.000
76.260 2178.000 1.000
76.280 2181.000 1.000
76.300 2144.000 1.000
76.320 2155.000 1.000
76.340 2130.000 1.000
76.360 2155.000 1.000
76.380 2129.000 1.000
76.400 2176.000 1.000
76.420 2120.000 1.000
76.440 2195.000 1.000
76.460 2143.000 1.000
76.480 2175.000 1.000
76.500 2234.000 1.000
76.520 2159.000 1.000
76.540 2146.000 1.000
76.560 2124.000 1.000
76.580 2099.000 1.000
76.600 2246.000 1.000
76.620 2226.000 1.000
76.640 2199.000 1.000
76.660 2227.000 1.000
76.680 2266.000 1.000
76.700 2188.000 1.000
76.720 2174.000 1.000
76.740 2262.000 1.000
76.760 2224.000 1.000
76.780 2167.000 1.000
76.800 2218.000 1.000
76.820 2272.000 1.000
76.840 2229.000 1.000
76.860 2210.000 1.000
76.880 2207.000 1.000
76.900 2211.000 1.000
76.920 2231.000 1.000
76.940 2283.000 1.000
76.960 2198.000 1.000
76.980 2228.000 1.000
77.000 2187.000 1.000
77.020 2192.000 1.000
77.040 2170.000 1.000
77.060 2231.000 1.000
77.080 2202.000 1.000
77.100 2195.000 1.000
77.120 2248.000 1.000
77.140 2209.000 1.000
77.160 2154.000 1.000
77.180 2191.000 1.000
77.200 2162.000 1.000
77.220 2186.000 1.000
77.240 2197.000 1.000
77.260 2193.000 1.000
77.280 2227.000 1.000
77.300 2184.000 1.000
77.320 2201.000 1.000
77.340 2143.000 1.000
77.360 2229.000 1.000
77.380 2237.000 1.000
77.400 2200.000 1.000
77.420 2140.000 1.000
77.440 2168.000 1.000
77.460 2128.000 1.000
77.480 2142.000 1.000
77.500 2268.000 1.000
77.520 2226.000 1.000
77.540 2305.000 1.000
77.560 2294.000 1.000
77.580 2272.000 1.000
77.600 2283.000 1.000
77.620 2250.000 1.000
77.640 2235.000 1.000
77.660 2192.000 1.000
77.680 2256.000 1.000
77.700 2289.000 1.000
77.720 2270.000 1.000
77.740 2237.000 1.000
77.760 2219.000 1.000
77.780 2186.000 1.000
77.800 2232.000 1.000
77.820 2199.000 1.000
77.840 2261.000 1.000
77.860 2286.000 1.000
77.880 2219.000 1.000
77.900 2207.000 1.000
77.920 2221.000 1.000
77.940 2221.000 1.000
77.960 2189.000 1.000
77.980 2261.000 1.000
78.000 2197.000 1.000
78.020 2174.000 1.000
78.040 2190.000 1.000
78.060 2127.000 1.000
78.080 2135.000 1.000
78.100 2183.000 1.000
78.120 2205.000 1.000
78.140 2170.000 1.000
78.160 2187.000 1.000
78.180 2250.000 1.000
78.200 2202.000 1.000
78.220 2273.000 1.000
78.240 2263.000 1.000
78.260 2279.000 1.000
78.280 2145.000 1.000
78.300 2171.000 1.000
78.320 2180.000 1.000
78.340 2245.000 1.000
78.360 2265.000 1.000
78.380 2173.000 1.000
78.400 2104.000 1.000
78.420 2173.000 1.000
78.440 2221.000 1.000
78.460 2243.000 1.000
78.480 2216.000 1.000
78.500 2196.000 1.000
78.520 2246.000 1.000
78.540 2152.000 1.000
78.560 2210.000 1.000
78.580 2146.000 1.000
78.600 2213.000 1.000
78.620 2227.000 1.000
78.640 2130.000 1.000
78.660 2244.000 1.000
78.680 2189.000 1.000
78.700 2179.000 1.000
78.720 2162.000 1.000
78.740 2178.000 1.000
78.760 2230.000 1.000
78.780 2217.000 1.000
78.800 2227.000 1.000
78.820 2296.000 1.000
78.840 2247.000 1.000
78.860 2167.000 1.000
78.880 2212.000 1.000
78.900 2267.000 1.000
78.920 2185.000 1.000
78.940 2132.000 1.000
78.960 2163.000 1.000
78.980 2183.000 1.000
79.000 2222.000 1.000
79.020 2274.000 1.000
79.040 2195.000 1.000
79.060 2279.000 1.000
79.080 2190.000 1.000
79.100 2151.000 1.000
79.120 2185.000 1.000
79.140 2176.000 1.000
79.160 2203.000 1.000
79.180 2121.000 1.000
79.200 2220.000 1.000
79.220 2168.000 1.000
79.240 2069.000 1.000
79.260 2156.000 1.000
79.280 2214.000 1.000
79.300 2232.000 1.000
79.320 2161.000 1.000
79.340 2151.000 1.000
79.360 2129.000 1.000
79.380 2236.000 1.000
79.400 2233.000 1.000
79.420 2203.000 1.000
79.440 2227.000 1.000
79.460 2228.000 1.000
79.480 2148.000 1.000
79.500 2125.000 1.000
79.520 2202.000 1.000
79.540 2174.000 1.000
79.560 2177.000 1.000
79.580 2228.000 1.000
79.600 2220.000 1.000
79.620 2236.000 1.000
79.640 2130.000 1.000
79.660 2164.000 1.000
79.680 2219.000 1.000
79.700 2200.000 1.000
79.720 2206.000 1.000
79.740 2197.000 1.000
79.760 2187.000 1.000
79.780 2194.000 1.000
79.800 2161.000 1.000
79.820 2236.000 1.000
79.840 2177.000 1.000
79.860 2179.000 1.000
79.880 2177.000 1.000
79.900 2228.000 1.000
79.920 2282.000 1.000
79.940 2251.000 1.000
79.960 2162.000 1.000
79.980 2159.000 1.000
80.000 2226.000 1.000
80.020 2123.000 1.000
80.040 2266.000 1.000
80.060 2247.000 1.000
80.080 2215.000 1.000
80.100 2167.000 1.000
80.120 2155.000 1.000
80.140 2138.000 1.000
80.160 2180.000 1.000
80.180 2190.000 1.000
80.200 2142.000 1.000
80.220 2222.000 1.000
80.240 2341.000 1.000
80.260 2208.000 1.000
80.280 2214.000 1.000
80.300 2264.000 1.000
80.320 2220.000 1.000
80.340 2200.000 1.000
80.360 2258.000 1.000
80.380 2224.000 1.000
80.400 2217.000 1.000
80.420 2216.000 1.000
80.440 2255.000 1.000
80.460 2270.000 1.000
80.480 2340.000 1.000
80.500 2250.000 1.000
80.520 2297.000 1.000
80.540 2275.000 1.000
80.560 2301.000 1.000
80.580 2306.000 1.000
80.600 2307.000 1.000
80.620 2268.000 1.000
80.640 2295.000 1.000
80.660 2315.000 1.000
80.680 2220.000 1.000
80.700 2286.000 1.000
80.720 2252.000 1.000
80.740 2253.000 1.000
80.760 2204.000 1.000
80.780 2241.000 1.000
80.800 2202.000 1.000
80.820 2230.000 1.000
80.840 2331.000 1.000
80.860 2239.000 1.000
80.880 2314.000 1.000
80.900 2322.000 1.000
80.920 2297.000 1.000
80.940 2258.000 1.000
80.960 2195.000 1.000
80.980 2211.000 1.000
81.000 2171.000 1.000
81.020 2198.000 1.000
81.040 2202.000 1.000
81.060 2207.000 1.000
81.080 2199.000 1.000
81.100 2212.000 1.000
81.120 2202.000 1.000
81.140 2210.000 1.000
81.160 2195.000 1.000
81.180 2152.000 1.000
81.200 2147.000 1.000
81.220 2166.000 1.000
81.240 2252.000 1.000
81.260 2200.000 1.000
81.280 2151.000 1.000
81.300 2149.000 1.000
81.320 2255.000 1.000
81.340 2239.000 1.000
81.360 2252.000 1.000
81.380 2179.000 1.000
81.400 2180.000 1.000
81.420 2140.000 1.000
81.440 2158.000 1.000
81.460 2195.000 1.000
81.480 2147.000 1.000
81.500 2085.000 1.000
81.520 2157.000 1.000
81.540 2156.000 1.000
81.560 2273.000 1.000
81.580 2168.000 1.000
81.600 2219.000 1.000
81.620 2145.000 1.000
81.640 2118.000 1.000
81.660 2186.000 1.000
81.680 2146.000 1.000
81.700 2191.000 1.000
81.720 2165.000 1.000
81.740 2147.000 1.000
81.760 2242.000 1.000
81.780 2210.000 1.000
81.800 2202.000 1.000
81.820 2215.000 1.000
81.840 2193.000 1.000
81.860 2155.000 1.000
81.880 2185.000 1.000
81.900 2197.000 1.000
81.920 2172.000 1.000
81.940 2224.000 1.000
81.960 2106.000 1.000
81.980 2187.000 1.000
82.000 2268.000 1.000
82.020 2247.000 1.000
82.040 2248.000 1.000
82.060 2186.000 1.000
82.080 2173.000 1.000
82.100 2197.000 1.000
82.120 2239.000 1.000
82.140 2185.000 1.000
82.160 2207.000 1.000
82.180 2251.000 1.000
82.200 2183.000 1.000
82.220 2151.000 1.000
82.240 2151.000 1.000
82.260 2199.000 1.000
82.280 2180.000 1.000
82.300 2201.000 1.000
82.320 2224.000 1.000
82.340 2156.000 1.000
82.360 2206.000 1.000
82.380 2199.000 1.000
82.400 2212.000 1.000
82.420 2232.000 1.000
82.440 2197.000 1.000
82.460 2320.000 1.000
82.480 2246.000 1.000
82.500 2177.000 1.000
82.520 2206.000 1.000
82.540 2190.000 1.000
82.560 2201.000 1.000
82.580 2210.000 1.000
82.600 2235.000 1.000
82.620 2184.000 1.000
82.640 2240.000 1.000
82.660 2205.000 1.000
82.680 2206.000 1.000
82.700 2241.000 1.000
82.720 2215.000 1.000
82.740 2303.000 1.000
82.760 2286.000 1.000
82.780 2243.000 1.000
82.800 2263.000 1.000
82.820 2252.000 1.000
82.840 2265.000 1.000
82.860 2308.000 1.000
82.880 2299.000 1.000
82.900 2263.000 1.000
82.920 2263.000 1.000
82.940 2277.000 1.000
82.960 2270.000 1.000
82.980 2309.000 1.000
83.000 2270.000 1.000
83.020 2254.000 1.000
83.040 2320.000 1.000
83.060 2244.000 1.000
83.080 2263.000 1.000
83.100 2195.000 1.000
83.120 2255.000 1.000
83.140 2309.000 1.000
83.160 2317.000 1.000
83.180 2234.000 1.000
83.200 2269.000 1.000
83.220 2231.000 1.000
83.240 2197.000 1.000
83.260 2242.000 1.000
83.280 2283.000 1.000
83.300 2170.000 1.000
83.320 2238.000 1.000
83.340 2224.000 1.000
83.360 2267.000 1.000
83.380 2242.000 1.000
83.400 2275.000 1.000
83.420 2199.000 1.000
83.440 2186.000 1.000
83.460 2234.000 1.000
83.480 2192.000 1.000
83.500 2242.000 1.000
83.520 2245.000 1.000
83.540 2234.000 1.000
83.560 2211.000 1.000
83.580 2246.000 1.000
83.600 2192.000 1.000
83.620 2229.000 1.000
83.640 2163.000 1.000
83.660 2189.000 1.000
83.680 2194.000 1.000
83.700 2226.000 1.000
83.720 2198.000 1.000
83.740 2143.000 1.000
83.760 2178.000 1.000
83.780 2150.000 1.000
83.800 2200.000 1.000
83.820 2159.000 1.000
83.840 2137.000 1.000
83.860 2217.000 1.000
83.880 2153.000 1.000
83.900 2132.000 1.000
83.920 2159.000 1.000
83.940 2193.000 1.000
83.960 2226.000 1.000
83.980 2105.000 1.000
84.000 2202.000 1.000
84.020 2219.000 1.000
84.040 2213.000 1.000
84.060 2236.000 1.000
84.080 2194.000 1.000
84.100 2194.000 1.000
84.120 2210.000 1.000
84.140 2190.000 1.000
84.160 2140.000 1.000
84.180 2131.000 1.000
84.200 2189.000 1.000
84.220 2195.000 1.000
84.240 2093.000 1.000
84.260 2175.000 1.000
84.280 2233.000 1.000
84.300 2203.000 1.000
84.320 2160.000 1.000
84.340 2197.000 1.000
84.360 2236.000 1.000
84.380 2158.000 1.000
84.400 2197.000 1.000
84.420 2226.000 1.000
84.440 2248.000 1.000
84.460 2249.000 1.000
84.480 2201.000 1.000
84.500 2211.000 1.000
84.520 2200.000 1.000
84.540 2146.000 1.000
84.560 2172.000 1.000
84.580 2189.000 1.000
84.600 2262.000 1.000
84.620 2240.000 1.000
84.640 2204.000 1.000
84.660 2260.000 1.000
84.680 2188.000 1.000
84.700 2261.000 1.000
84.720 2252.000 1.000
84.740 2340.000 1.000
84.760 2360.000 1.000
84.780 2283.000 1.000
84.800 2320.000 1.000
84.820 2377.000 1.000
84.840 2418.000 1.000
84.860 2329.000 1.000
84.880 2307.000 1.000
84.900 2263.000 1.000
84.920 2319.000 1.000
84.940 2295.000 1.000
84.960 2288.000 1.000
84.980 2355.000 1.000
85.000 2373.000 1.000
85.020 2245.000 1.000
85.040 2303.000 1.000
85.060 2258.000 1.000
85.080 2224.000 1.000
85.100 2384.000 1.000
85.120 2371.000 1.000
85.140 2258.000 1.000
85.160 2277.000 1.000
85.180 2283.000 1.000
85.200 2235.000 1.000
85.220 2245.000 1.000
85.240 2234.000 1.000
85.260 2265.000 1.000
85.280 2242.000 1.000
85.300 2292.000 1.000
85.320 2280.000 1.000
85.340 2200.000 1.000
85.360 2200.000 1.000
85.380 2187.000 1.000
85.400 2263.000 1.000
85.420 2232.000 1.000
85.440 2206.000 1.000
85.460 2256.000 1.000
85.480 2168.000 1.000
85.500 2220.000 1.000
85.520 2300.000 1.000
85.540 2217.000 1.000
85.560 2199.000 1.000
85.580 2173.000 1.000
85.600 2199.000 1.000
85.620 2146.000 1.000
85.640 2207.000 1.000
85.660 2163.000 1.000
85.680 2211.000 1.000
85.700 2255.000 1.000
85.720 2252.000 1.000
85.740 2193.000 1.000
85.760 2240.000 1.000
85.780 2177.000 1.000
85.800 2223.000 1.000
85.820 2082.000 1.000
85.840 2178.000 1.000
85.860 2240.000 1.000
85.880 2178.000 1.000
85.900 2143.000 1.000
85.920 2154.000 1.000
85.940 2180.000 1.000
85.960 2213.000 1.000
85.980 2260.000 1.000
86.000 2202.000 1.000
86.020 2148.000 1.000
86.040 2167.000 1.000
86.060 2253.000 1.000
86.080 2126.000 1.000
86.100 2171.000 1.000
86.120 2201.000 1.000
86.140 2169.000 1.000
86.160 2177.000 1.000
86.180 2225.000 1.000
86.200 2139.000 1.000
86.220 2230.000 1.000
86.240 2215.000 1.000
86.260 2139.000 1.000
86.280 2162.000 1.000
86.300 2126.000 1.000
86.320 2185.000 1.000
86.340 2260.000 1.000
86.360 2213.000 1.000
86.380 2143.000 1.000
86.400 2205.000 1.000
86.420 2231.000 1.000
86.440 2183.000 1.000
86.460 2119.000 1.000
86.480 2298.000 1.000
86.500 2183.000 1.000
86.520 2109.000 1.000
86.540 2191.000 1.000
86.560 2143.000 1.000
86.580 2202.000 1.000
86.600 2244.000 1.000
86.620 2170.000 1.000
86.640 2131.000 1.000
86.660 2088.000 1.000
86.680 2217.000 1.000
86.700 2187.000 1.000
86.720 2127.000 1.000
86.740 2187.000 1.000
86.760 2203.000 1.000
86.780 2184.000 1.000
86.800 2210.000 1.000
86.820 2185.000 1.000
86.840 2253.000 1.000
86.860 2175.000 1.000
86.880 2264.000 1.000
86.900 2264.000 1.000
86.920 2205.000 1.000
86.940 2165.000 1.000
86.960 2145.000 1.000
86.980 2195.000 1.000
87.000 2201.000 1.000
87.020 2128.000 1.000
87.040 2127.000 1.000
87.060 2140.000 1.000
87.080 2173.000 1.000
87.100 2151.000 1.000
87.120 2155.000 1.000
87.140 2062.000 1.000
87.160 2088.000 1.000
87.180 2144.000 1.000
87.200 2222.000 1.000
87.220 2159.000 1.000
87.240 2173.000 1.000
87.260 2183.000 1.000
87.280 2212.000 1.000
87.300 2208.000 1.000
87.320 2184.000 1.000
87.340 2138.000 1.000
87.360 2236.000 1.000
87.380 2194.000 1.000
87.400 2190.000 1.000
87.420 2167.000 1.000
87.440 2175.000 1.000
87.460 2128.000 1.000
87.480 2149.000 1.000
87.500 2153.000 1.000
87.520 2128.000 1.000
87.540 2164.000 1.000
87.560 2148.000 1.000
87.580 2177.000 1.000
87.600 2218.000 1.000
87.620 2234.000 1.000
87.640 2235.000 1.000
87.660 2166.000 1.000
87.680 2150.000 1.000
87.700 2106.000 1.000
87.720 2165.000 1.000
87.740 2199.000 1.000
87.760 2292.000 1.000
87.780 2193.000 1.000
87.800 2226.000 1.000
87.820 2245.000 1.000
87.840 2215.000 1.000
87.860 2245.000 1.000
87.880 2155.000 1.000
87.900 2167.000 1.000
87.920 2154.000 1.000
87.940 2175.000 1.000
87.960 2181.000 1.000
87.980 2239.000 1.000
88.000 2236.000 1.000
88.020 2191.000 1.000
88.040 2262.000 1.000
88.060 2204.000 1.000
88.080 2271.000 1.000
88.100 2184.000 1.000
88.120 2178.000 1.000
88.140 2151.000 1.000
88.160 2216.000 1.000
88.180 2197.000 1.000
88.200 2259.000 1.000
88.220 2251.000 1.000
88.240 2237.000 1.000
88.260 2235.000 1.000
88.280 2197.000 1.000
88.300 2307.000 1.000
88.320 2288.000 1.000
88.340 2274.000 1.000
88.360 2214.000 1.000
88.380 2295.000 1.000
88.400 2328.000 1.000
88.420 2367.000 1.000
88.440 2351.000 1.000
88.460 2359.000 1.000
88.480 2308.000 1.000
88.500 2314.000 1.000
88.520 2320.000 1.000
88.540 2333.000 1.000
88.560 2343.000 1.000
88.580 2273.000 1.000
88.600 2320.000 1.000
88.620 2271.000 1.000
88.640 2320.000 1.000
88.660 2270.000 1.000
88.680 2321.000 1.000
88.700 2307.000 1.000
88.720 2300.000 1.000
88.740 2271.000 1.000
88.760 2269.000 1.000
88.780 2299.000 1.000
88.800 2317.000 1.000
88.820 2336.000 1.000
88.840 2334.000 1.000
88.860 2266.000 1.000
88.880 2275.000 1.000
88.900 2319.000 1.000
88.920 2339.000 1.000
88.940 2298.000 1.000
88.960 2361.000 1.000
88.980 2240.000 1.000
89.000 2210.000 1.000
89.020 2299.000 1.000
89.040 2319.000 1.000
89.060 2261.000 1.000
89.080 2282.000 1.000
89.100 2247.000 1.000
89.120 2275.000 1.000
89.140 2317.000 1.000
89.160 2247.000 1.000
89.180 2216.000 1.000
89.200 2309.000 1.000
89.220 2283.000 1.000
89.240 2291.000 1.000
89.260 2245.000 1.000
89.280 2169.000 1.000
89.300 2096.000 1.000
89.320 2194.000 1.000
89.340 2177.000 1.000
89.360 2204.000 1.000
89.380 2194.000 1.000
89.400 2195.000 1.000
89.420 2207.000 1.000
89.440 2142.000 1.000
89.460 2314.000 1.000
89.480 2274.000 1.000
89.500 2239.000 1.000
89.520 2212.000 1.000
89.540 2225.000 1.000
89.560 2209.000 1.000
89.580 2201.000 1.000
89.600 2191.000 1.000
89.620 2231.000 1.000
89.640 2287.000 1.000
89.660 2297.000 1.000
89.680 2237.000 1.000
89.700 2197.000 1.000
89.720 2193.000 1.000
89.740 2142.000 1.000
89.760 2164.000 1.000
89.780 2231.000 1.000
89.800 2263.000 1.000
89.820 2255.000 1.000
89.840 2274.000 1.000
89.860 2222.000 1.000
89.880 2247.000 1.000
89.900 2206.000 1.000
89.920 2156.000 1.000
89.940 2156.000 1.000
89.960 2156.000 1.000
89.980 2156.000 1.000
90.000 2156.000 1.000
*RAS_INT_END
*RAS_DATA_END
