*RAS_DATA_START
*RAS_HEADER_START
*CORR_POS_DB_NAME "C_DteX_ASC-6_15122015"
*CORR_POS_GONIO_RADIUS ""
*CORR_POS_NODE_INDEX01 ""
*CORR_POS_NODE_INDEX02 ""
*CORR_POS_NODE_INDEX03 ""
*CORR_POS_NODE_INDEX04 ""
*CORR_POS_NODE_INDEX05 ""
*CORR_POS_NODE_INDEX06 ""
*CORR_POS_NODE_INDEX07 ""
*CORR_POS_NODE_INDEX08 ""
*CORR_POS_NODE_INDEX09 ""
*CORR_POS_NODE_INDEX10 ""
*CORR_POS_NODE_INDEX11 ""
*CORR_POS_NODE_LABEL01 "Si(111)"
*CORR_POS_NODE_LABEL02 "Si(220)"
*CORR_POS_NODE_LABEL03 "Si(311)"
*CORR_POS_NODE_LABEL04 "Si(400)"
*CORR_POS_NODE_LABEL05 "Si(331)"
*CORR_POS_NODE_LABEL06 "Si(422)"
*CORR_POS_NODE_LABEL07 "Si(511)"
*CORR_POS_NODE_LABEL08 "Si(440)"
*CORR_POS_NODE_LABEL09 "Si(531)"
*CORR_POS_NODE_LABEL10 "Si(620)"
*CORR_POS_NODE_LABEL11 "Si(533)"
*CORR_POS_NODE_POS_CALC01 "28.4137"
*CORR_POS_NODE_POS_CALC02 "47.2707"
*CORR_POS_NODE_POS_CALC03 "56.0883"
*CORR_POS_NODE_POS_CALC04 "69.0934"
*CORR_POS_NODE_POS_CALC05 "76.3385"
*CORR_POS_NODE_POS_CALC06 "87.9915"
*CORR_POS_NODE_POS_CALC07 "94.9137"
*CORR_POS_NODE_POS_CALC08 "106.67"
*CORR_POS_NODE_POS_CALC09 "114.054"
*CORR_POS_NODE_POS_CALC10 "127.508"
*CORR_POS_NODE_POS_CALC11 "136.858"
*CORR_POS_NODE_POS_MEAS01 "28.4844"
*CORR_POS_NODE_POS_MEAS02 "47.3386"
*CORR_POS_NODE_POS_MEAS03 "56.1592"
*CORR_POS_NODE_POS_MEAS04 "69.1708"
*CORR_POS_NODE_POS_MEAS05 "76.4167"
*CORR_POS_NODE_POS_MEAS06 "88.0714"
*CORR_POS_NODE_POS_MEAS07 "94.9948"
*CORR_POS_NODE_POS_MEAS08 "106.756"
*CORR_POS_NODE_POS_MEAS09 "114.134"
*CORR_POS_NODE_POS_MEAS10 "127.59"
*CORR_POS_NODE_POS_MEAS11 "136.946"
*CORR_POS_OPT_ATTR "集中法"
*CORR_POS_PARAM_MU ""
*CORR_POS_PARAM_PL ""
*CORR_POS_SEMODEL_TYPE "0"
*CORR_POS_STANDARD_TYPE ""
*CORR_POS_VALUE_ANALYZER "None"
*CORR_POS_VALUE_CMONO "None"
*CORR_POS_VALUE_IMONO "None"
*CORR_POS_VALUE_IS "0.625deg"
*CORR_POS_VALUE_ISL "10.0mm"
*CORR_POS_VALUE_ISOLLER "2.5deg"
*CORR_POS_VALUE_RS1 "13.0mm"
*CORR_POS_VALUE_RS2 "13.0mm"
*CORR_POS_VALUE_RSOLLER "2.5deg"
*CORR_POS_XG_FOCUS_L ""
*CORR_POS_XG_WAVE_TYPE ""
*CORR_POS_XG_WAVE_VALUE ""
*DISP_FMT_X "%.2f"
*DISP_FMT_Y "%.0f"
*DISP_FULLSCALE "41535.0000000000"
*DISP_LINE_COLOR "255.0000000000"
*DISP_LINE_STYLE "0.0000000000"
*DISP_LINE_WIDTH "0.2500000000"
*DISP_NOTE "Collected Data-1"
*DISP_OFFSET_Y "0.0000000000"
*DISP_PEAKSEARCH_UNIT_Y "cps"
*DISP_RANGE_BOTTOM "0.0000000000"
*DISP_RANGE_LEFT "5.0000000000"
*DISP_RANGE_LOGCUTOFF "0.0100000000"
*DISP_RANGE_RIGHT "90.0000000000"
*DISP_RANGE_TOP "41535.0000000000"
*DISP_SCALE_MODE_Y "0.0000000000"
*DISP_TAB_NAME "Theta/2-Theta"
*DISP_TITLE_Y "Intensity"
*DISP_UNIT_Y "cps"
*DISP_WINDOW_NAME "MSG_MACROENGINE"
*FILE_COMMENT " "
*FILE_MD5 ""
*FILE_MEMO " "
*FILE_OPERATOR "RIGAKU"
*FILE_SAMPLE "ZnOCuCl2"
*FILE_TYPE "RAS_RAW"
*FILE_USERGROUP "System Manager"
*FILE_VERSION "1.0000000000"
*HW_ATTACHMENT_ID "ATT1031"
*HW_ATTACHMENT_NAME "6サンプルチェンジャ|ASC-6"
*HW_COUNTER_ID-0 "CUT0025"
*HW_COUNTER_ID-1 "CUT0020"
*HW_COUNTER_ID-2 "CUT0020"
*HW_COUNTER_ID-3 "CMC0021"
*HW_COUNTER_NAME-0 "D/teX Ultra|D/teX Ultra"
*HW_COUNTER_NAME-1 "None|None"
*HW_COUNTER_NAME-2 "None|None"
*HW_COUNTER_NAME-3 "検出器モノクロメータ|Detector monochromator"
*HW_COUNTER_SELECT_NAME "D/teX Ultra|D/teX Ultra"
*HW_GONIOMETER_ID "GON0070"
*HW_GONIOMETER_NAME "MiniFlex 300/600|MiniFlex 300/600"
*HW_GONIOMETER_RADIUS-0 "79.0"
*HW_GONIOMETER_RADIUS-1 "91.5"
*HW_GONIOMETER_RADIUS-2 "150.0"
*HW_GONIOMETER_RADIUS-3 "0"
*HW_GONIOMETER_RADIUS-4 "103.4"
*HW_GONIOMETER_RADIUS-5 "150.0"
*HW_GONIOMETER_RADIUS-6 "46.6"
*HW_GONIOMETER_RADIUS-7 "160.0"
*HW_I_OPT_ID-0 "ISL0021"
*HW_I_OPT_ID-1 "ISO0021"
*HW_I_OPT_NAME-0 "発散スリット|Divergence slit"
*HW_I_OPT_NAME-1 "入射平行スリット|Incident parallel slit"
*HW_R_ATTENUATER_AUTOMODE "0"
*HW_R_OPT_ID-0 "RSS0021"
*HW_R_OPT_ID-1 "RSO0021"
*HW_R_OPT_ID-2 "RRS0021"
*HW_R_OPT_NAME-0 "散乱スリット|Scattering slit"
*HW_R_OPT_NAME-1 "受光平行スリット|Receiving soller slit"
*HW_R_OPT_NAME-2 "受光スリット|Receiving slit"
*HW_SAMPLE_HOLDER_ID "SMP0000"
*HW_SAMPLE_HOLDER_NAME "無し|None"
*HW_XG_CURRENT_MAX "15"
*HW_XG_CURRENT_MIN "2"
*HW_XG_CURRENT_RESOLUTION "1"
*HW_XG_CURRENT_UNIT "mA"
*HW_XG_FOCUS "1mm x 10mm"
*HW_XG_FOCUS_TYPE "Normal"
*HW_XG_ID ""
*HW_XG_NAME "300W/600W 封入管-B|300W/600W Sealed tube-B"
*HW_XG_TARGET_ATOMIC_NUMBER "29.0000000000"
*HW_XG_TARGET_NAME "Cu"
*HW_XG_TYPE "Hermetic"
*HW_XG_VOLTAGE_MAX "40"
*HW_XG_VOLTAGE_MIN "20"
*HW_XG_VOLTAGE_RESOLUTION "1"
*HW_XG_VOLTAGE_UNIT "kV"
*HW_XG_WATT_MAX "0.600"
*HW_XG_WATT_UNIT "kW"
*HW_XG_WAVE_LENGTH_ALPHA1 "1.540593"
*HW_XG_WAVE_LENGTH_ALPHA2 "1.544414"
*HW_XG_WAVE_LENGTH_BETA "1.392250"
*MEAS_COND_AXIS_NAME-0 "Theta/2-Theta"
*MEAS_COND_AXIS_NAME-1 "Spin"
*MEAS_COND_AXIS_NAME-2 "Change"
*MEAS_COND_AXIS_NAME-3 "Soller(inc.)"
*MEAS_COND_AXIS_NAME-4 "IHS"
*MEAS_COND_AXIS_NAME-5 "DS"
*MEAS_COND_AXIS_NAME-6 "SS"
*MEAS_COND_AXIS_NAME-7 "Soller(rec.)"
*MEAS_COND_AXIS_NAME-8 "RS"
*MEAS_COND_AXIS_NAME-9 "Filter"
*MEAS_COND_AXIS_NAME-10 "Monochromator"
*MEAS_COND_AXIS_NAME-11 "PHA"
*MEAS_COND_AXIS_NAME_INTERNAL-0 "TwoThetaTheta"
*MEAS_COND_AXIS_NAME_INTERNAL-1 "Spin"
*MEAS_COND_AXIS_NAME_INTERNAL-2 "Change"
*MEAS_COND_AXIS_NAME_INTERNAL-3 "IncidentSollerSlit"
*MEAS_COND_AXIS_NAME_INTERNAL-4 "IncidentAxdSlit"
*MEAS_COND_AXIS_NAME_INTERNAL-5 "IncidentSlitBox"
*MEAS_COND_AXIS_NAME_INTERNAL-6 "ReceivingSlitBox1"
*MEAS_COND_AXIS_NAME_INTERNAL-7 "ReceivingSollerSlit"
*MEAS_COND_AXIS_NAME_INTERNAL-8 "ReceivingSlitBox2"
*MEAS_COND_AXIS_NAME_INTERNAL-9 "Filter"
*MEAS_COND_AXIS_NAME_INTERNAL-10 "CounterMonochromator"
*MEAS_COND_AXIS_NAME_INTERNAL-11 "PHA"
*MEAS_COND_AXIS_NAME_MAGICNO-0 "268632064.0000000000"
*MEAS_COND_AXIS_NAME_MAGICNO-1 "16842752.0000000000"
*MEAS_COND_AXIS_NAME_MAGICNO-2 "16842752.0000000000"
*MEAS_COND_AXIS_NAME_MAGICNO-3 "20971521.0000000000"
*MEAS_COND_AXIS_NAME_MAGICNO-4 "22020097.0000000000"
*MEAS_COND_AXIS_NAME_MAGICNO-5 "22020097.0000000000"
*MEAS_COND_AXIS_NAME_MAGICNO-6 "23068673.0000000000"
*MEAS_COND_AXIS_NAME_MAGICNO-7 "20971521.0000000000"
*MEAS_COND_AXIS_NAME_MAGICNO-8 "23068673.0000000000"
*MEAS_COND_AXIS_NAME_MAGICNO-9 "20971521.0000000000"
*MEAS_COND_AXIS_NAME_MAGICNO-10 "20971521.0000000000"
*MEAS_COND_AXIS_NAME_MAGICNO-11 "0.0000000000"
*MEAS_COND_AXIS_OFFSET-0 "0.0000000000"
*MEAS_COND_AXIS_OFFSET-1 "-"
*MEAS_COND_AXIS_OFFSET-2 "-"
*MEAS_COND_AXIS_OFFSET-3 "-"
*MEAS_COND_AXIS_OFFSET-4 "-"
*MEAS_COND_AXIS_OFFSET-5 "-"
*MEAS_COND_AXIS_OFFSET-6 "-"
*MEAS_COND_AXIS_OFFSET-7 "-"
*MEAS_COND_AXIS_OFFSET-8 "-"
*MEAS_COND_AXIS_OFFSET-9 "-"
*MEAS_COND_AXIS_OFFSET-10 "-"
*MEAS_COND_AXIS_OFFSET-11 "-"
*MEAS_COND_AXIS_POSITION-0 "10.0000000000"
*MEAS_COND_AXIS_POSITION-1 "0.0000000000"
*MEAS_COND_AXIS_POSITION-2 "2.0000000000"
*MEAS_COND_AXIS_POSITION-3 "2.5deg"
*MEAS_COND_AXIS_POSITION-4 "10.0mm"
*MEAS_COND_AXIS_POSITION-5 "0.625deg"
*MEAS_COND_AXIS_POSITION-6 "13.0mm"
*MEAS_COND_AXIS_POSITION-7 "2.5deg"
*MEAS_COND_AXIS_POSITION-8 "13.0mm"
*MEAS_COND_AXIS_POSITION-9 "K-beta(x2)"
*MEAS_COND_AXIS_POSITION-10 "None"
*MEAS_COND_AXIS_POSITION-11 "40.0000000000"
*MEAS_COND_AXIS_UNIT-0 "deg"
*MEAS_COND_AXIS_UNIT-1 ""
*MEAS_COND_AXIS_UNIT-2 ""
*MEAS_COND_AXIS_UNIT-3 ""
*MEAS_COND_AXIS_UNIT-4 ""
*MEAS_COND_AXIS_UNIT-5 ""
*MEAS_COND_AXIS_UNIT-6 ""
*MEAS_COND_AXIS_UNIT-7 ""
*MEAS_COND_AXIS_UNIT-8 ""
*MEAS_COND_AXIS_UNIT-9 ""
*MEAS_COND_AXIS_UNIT-10 ""
*MEAS_COND_AXIS_UNIT-11 "div"
*MEAS_COND_CORRECTION_SLIT_COUNTERMONO "None"
*MEAS_COND_CORRECTION_SLIT_DS "0.625deg"
*MEAS_COND_CORRECTION_SLIT_FILTER "None"
*MEAS_COND_CORRECTION_SLIT_IHS "10.0mm"
*MEAS_COND_CORRECTION_SLIT_RS "13.0mm"
*MEAS_COND_CORRECTION_SLIT_SOLLER_INC "2.5deg"
*MEAS_COND_CORRECTION_SLIT_SOLLER_REC "2.5deg"
*MEAS_COND_CORRECTION_SLIT_SS "13.0mm"
*MEAS_COND_COUNTER_CNTLOSS_CORR "0.0000000000"
*MEAS_COND_COUNTER_PHABASE "40.0000000000"
*MEAS_COND_COUNTER_PHAWINDOW "15.0000000000"
*MEAS_COND_COUNTER_PHA_UNIT "div"
*MEAS_COND_COUNTER_TAUDIFF "0.2500000000"
*MEAS_COND_COUNTER_TAUINT "0.7500000000"
*MEAS_COND_IRRADIATION_MODE "OFF"
*MEAS_COND_IRRADIATION_WIDTH ""
*MEAS_COND_OPT_ATTR " "
*MEAS_COND_OPT_NAME ""
*MEAS_COND_UNSYMMETRIC_MODE "OFF"
*MEAS_COND_XG_CURRENT "15.0000000000"
*MEAS_COND_XG_VOLTAGE "40.0000000000"
*MEAS_COND_XG_WAVE_TYPE "Ka"
*MEAS_DATA_COUNT "4251.0000000000"
*MEAS_SCAN_AXIS_X "Theta/2-Theta"
*MEAS_SCAN_AXIS_X_INTERNAL "TwoThetaTheta"
*MEAS_SCAN_END_TIME "03/03/17 15:18:00"
*MEAS_SCAN_MODE "CONTINUOUS"
*MEAS_SCAN_MONITOR "0"
*MEAS_SCAN_RESOLUTION_X "0.005"
*MEAS_SCAN_SPEED "5.000"
*MEAS_SCAN_SPEED_UNIT "deg/min"
*MEAS_SCAN_START "5.0000000000"
*MEAS_SCAN_START_TIME "03/03/17 14:59:44"
*MEAS_SCAN_STEP "0.0200000000"
*MEAS_SCAN_STOP "90.0000000000"
*MEAS_SCAN_UNIT_X "deg"
*MEAS_SCAN_UNIT_Y "counts"
*SLIT_SYSTEM "0"
*RAS_HEADER_END
*RAS_INT_START
5.000 633.000 1.000
5.020 597.000 1.000
5.040 615.000 1.000
5.060 638.000 1.000
5.080 621.000 1.000
5.100 604.000 1.000
5.120 600.000 1.000
5.140 630.000 1.000
5.160 626.000 1.000
5.180 600.000 1.000
5.200 627.000 1.000
5.220 637.000 1.000
5.240 641.000 1.000
5.260 630.000 1.000
5.280 605.000 1.000
5.300 590.000 1.000
5.320 602.000 1.000
5.340 629.000 1.000
5.360 636.000 1.000
5.380 644.000 1.000
5.400 641.000 1.000
5.420 636.000 1.000
5.440 649.000 1.000
5.460 609.000 1.000
5.480 612.000 1.000
5.500 625.000 1.000
5.520 626.000 1.000
5.540 619.000 1.000
5.560 631.000 1.000
5.580 582.000 1.000
5.600 552.000 1.000
5.620 593.000 1.000
5.640 611.000 1.000
5.660 599.000 1.000
5.680 612.000 1.000
5.700 603.000 1.000
5.720 586.000 1.000
5.740 589.000 1.000
5.760 569.000 1.000
5.780 583.000 1.000
5.800 581.000 1.000
5.820 592.000 1.000
5.840 584.000 1.000
5.860 606.000 1.000
5.880 584.000 1.000
5.900 552.000 1.000
5.920 569.000 1.000
5.940 599.000 1.000
5.960 594.000 1.000
5.980 592.000 1.000
6.000 610.000 1.000
6.020 603.000 1.000
6.040 594.000 1.000
6.060 607.000 1.000
6.080 585.000 1.000
6.100 560.000 1.000
6.120 551.000 1.000
6.140 578.000 1.000
6.160 591.000 1.000
6.180 568.000 1.000
6.200 545.000 1.000
6.220 558.000 1.000
6.240 576.000 1.000
6.260 546.000 1.000
6.280 538.000 1.000
6.300 554.000 1.000
6.320 572.000 1.000
6.340 573.000 1.000
6.360 561.000 1.000
6.380 546.000 1.000
6.400 566.000 1.000
6.420 580.000 1.000
6.440 573.000 1.000
6.460 570.000 1.000
6.480 587.000 1.000
6.500 565.000 1.000
6.520 583.000 1.000
6.540 594.000 1.000
6.560 578.000 1.000
6.580 546.000 1.000
6.600 560.000 1.000
6.620 569.000 1.000
6.640 586.000 1.000
6.660 588.000 1.000
6.680 535.000 1.000
6.700 544.000 1.000
6.720 550.000 1.000
6.740 567.000 1.000
6.760 593.000 1.000
6.780 591.000 1.000
6.800 545.000 1.000
6.820 533.000 1.000
6.840 535.000 1.000
6.860 568.000 1.000
6.880 571.000 1.000
6.900 563.000 1.000
6.920 580.000 1.000
6.940 573.000 1.000
6.960 552.000 1.000
6.980 554.000 1.000
7.000 554.000 1.000
7.020 543.000 1.000
7.040 539.000 1.000
7.060 536.000 1.000
7.080 540.000 1.000
7.100 583.000 1.000
7.120 550.000 1.000
7.140 523.000 1.000
7.160 549.000 1.000
7.180 578.000 1.000
7.200 573.000 1.000
7.220 559.000 1.000
7.240 548.000 1.000
7.260 553.000 1.000
7.280 540.000 1.000
7.300 531.000 1.000
7.320 563.000 1.000
7.340 564.000 1.000
7.360 548.000 1.000
7.380 544.000 1.000
7.400 525.000 1.000
7.420 519.000 1.000
7.440 520.000 1.000
7.460 553.000 1.000
7.480 553.000 1.000
7.500 553.000 1.000
7.520 571.000 1.000
7.540 598.000 1.000
7.560 578.000 1.000
7.580 551.000 1.000
7.600 574.000 1.000
7.620 575.000 1.000
7.640 534.000 1.000
7.660 535.000 1.000
7.680 535.000 1.000
7.700 539.000 1.000
7.720 555.000 1.000
7.740 533.000 1.000
7.760 526.000 1.000
7.780 543.000 1.000
7.800 547.000 1.000
7.820 548.000 1.000
7.840 535.000 1.000
7.860 549.000 1.000
7.880 544.000 1.000
7.900 544.000 1.000
7.920 587.000 1.000
7.940 568.000 1.000
7.960 532.000 1.000
7.980 535.000 1.000
8.000 534.000 1.000
8.020 528.000 1.000
8.040 550.000 1.000
8.060 528.000 1.000
8.080 543.000 1.000
8.100 559.000 1.000
8.120 520.000 1.000
8.140 528.000 1.000
8.160 541.000 1.000
8.180 549.000 1.000
8.200 565.000 1.000
8.220 570.000 1.000
8.240 545.000 1.000
8.260 543.000 1.000
8.280 529.000 1.000
8.300 540.000 1.000
8.320 548.000 1.000
8.340 538.000 1.000
8.360 531.000 1.000
8.380 528.000 1.000
8.400 551.000 1.000
8.420 554.000 1.000
8.440 528.000 1.000
8.460 573.000 1.000
8.480 571.000 1.000
8.500 557.000 1.000
8.520 573.000 1.000
8.540 561.000 1.000
8.560 536.000 1.000
8.580 519.000 1.000
8.600 549.000 1.000
8.620 551.000 1.000
8.640 536.000 1.000
8.660 549.000 1.000
8.680 541.000 1.000
8.700 540.000 1.000
8.720 552.000 1.000
8.740 539.000 1.000
8.760 552.000 1.000
8.780 558.000 1.000
8.800 586.000 1.000
8.820 603.000 1.000
8.840 563.000 1.000
8.860 579.000 1.000
8.880 565.000 1.000
8.900 529.000 1.000
8.920 540.000 1.000
8.940 540.000 1.000
8.960 576.000 1.000
8.980 561.000 1.000
9.000 568.000 1.000
9.020 585.000 1.000
9.040 565.000 1.000
9.060 547.000 1.000
9.080 541.000 1.000
9.100 559.000 1.000
9.120 567.000 1.000
9.140 564.000 1.000
9.160 558.000 1.000
9.180 561.000 1.000
9.200 556.000 1.000
9.220 541.000 1.000
9.240 533.000 1.000
9.260 557.000 1.000
9.280 572.000 1.000
9.300 556.000 1.000
9.320 539.000 1.000
9.340 552.000 1.000
9.360 587.000 1.000
9.380 547.000 1.000
9.400 533.000 1.000
9.420 562.000 1.000
9.440 562.000 1.000
9.460 570.000 1.000
9.480 571.000 1.000
9.500 532.000 1.000
9.520 540.000 1.000
9.540 565.000 1.000
9.560 572.000 1.000
9.580 556.000 1.000
9.600 564.000 1.000
9.620 573.000 1.000
9.640 584.000 1.000
9.660 568.000 1.000
9.680 558.000 1.000
9.700 562.000 1.000
9.720 567.000 1.000
9.740 561.000 1.000
9.760 561.000 1.000
9.780 558.000 1.000
9.800 564.000 1.000
9.820 586.000 1.000
9.840 572.000 1.000
9.860 576.000 1.000
9.880 589.000 1.000
9.900 557.000 1.000
9.920 546.000 1.000
9.940 577.000 1.000
9.960 570.000 1.000
9.980 570.000 1.000
10.000 570.000 1.000
10.020 582.000 1.000
10.040 577.000 1.000
10.060 571.000 1.000
10.080 567.000 1.000
10.100 555.000 1.000
10.120 555.000 1.000
10.140 557.000 1.000
10.160 563.000 1.000
10.180 567.000 1.000
10.200 551.000 1.000
10.220 568.000 1.000
10.240 547.000 1.000
10.260 583.000 1.000
10.280 574.000 1.000
10.300 563.000 1.000
10.320 570.000 1.000
10.340 586.000 1.000
10.360 590.000 1.000
10.380 585.000 1.000
10.400 590.000 1.000
10.420 562.000 1.000
10.440 583.000 1.000
10.460 596.000 1.000
10.480 564.000 1.000
10.500 570.000 1.000
10.520 573.000 1.000
10.540 613.000 1.000
10.560 622.000 1.000
10.580 581.000 1.000
10.600 596.000 1.000
10.620 621.000 1.000
10.640 602.000 1.000
10.660 569.000 1.000
10.680 562.000 1.000
10.700 593.000 1.000
10.720 606.000 1.000
10.740 582.000 1.000
10.760 585.000 1.000
10.780 597.000 1.000
10.800 596.000 1.000
10.820 614.000 1.000
10.840 603.000 1.000
10.860 586.000 1.000
10.880 556.000 1.000
10.900 580.000 1.000
10.920 610.000 1.000
10.940 597.000 1.000
10.960 597.000 1.000
10.980 615.000 1.000
11.000 602.000 1.000
11.020 590.000 1.000
11.040 581.000 1.000
11.060 599.000 1.000
11.080 623.000 1.000
11.100 609.000 1.000
11.120 589.000 1.000
11.140 606.000 1.000
11.160 596.000 1.000
11.180 616.000 1.000
11.200 643.000 1.000
11.220 623.000 1.000
11.240 605.000 1.000
11.260 644.000 1.000
11.280 654.000 1.000
11.300 633.000 1.000
11.320 626.000 1.000
11.340 599.000 1.000
11.360 602.000 1.000
11.380 606.000 1.000
11.400 592.000 1.000
11.420 608.000 1.000
11.440 620.000 1.000
11.460 617.000 1.000
11.480 607.000 1.000
11.500 597.000 1.000
11.520 606.000 1.000
11.540 612.000 1.000
11.560 604.000 1.000
11.580 600.000 1.000
11.600 613.000 1.000
11.620 602.000 1.000
11.640 604.000 1.000
11.660 607.000 1.000
11.680 614.000 1.000
11.700 616.000 1.000
11.720 640.000 1.000
11.740 626.000 1.000
11.760 621.000 1.000
11.780 609.000 1.000
11.800 635.000 1.000
11.820 625.000 1.000
11.840 644.000 1.000
11.860 613.000 1.000
11.880 646.000 1.000
11.900 625.000 1.000
11.920 608.000 1.000
11.940 641.000 1.000
11.960 621.000 1.000
11.980 630.000 1.000
12.000 615.000 1.000
12.020 608.000 1.000
12.040 608.000 1.000
12.060 592.000 1.000
12.080 605.000 1.000
12.100 613.000 1.000
12.120 638.000 1.000
12.140 658.000 1.000
12.160 652.000 1.000
12.180 631.000 1.000
12.200 628.000 1.000
12.220 650.000 1.000
12.240 647.000 1.000
12.260 652.000 1.000
12.280 675.000 1.000
12.300 634.000 1.000
12.320 621.000 1.000
12.340 608.000 1.000
12.360 630.000 1.000
12.380 634.000 1.000
12.400 647.000 1.000
12.420 647.000 1.000
12.440 651.000 1.000
12.460 647.000 1.000
12.480 634.000 1.000
12.500 640.000 1.000
12.520 614.000 1.000
12.540 627.000 1.000
12.560 645.000 1.000
12.580 658.000 1.000
12.600 654.000 1.000
12.620 634.000 1.000
12.640 629.000 1.000
12.660 633.000 1.000
12.680 647.000 1.000
12.700 679.000 1.000
12.720 672.000 1.000
12.740 628.000 1.000
12.760 653.000 1.000
12.780 674.000 1.000
12.800 658.000 1.000
12.820 657.000 1.000
12.840 666.000 1.000
12.860 655.000 1.000
12.880 673.000 1.000
12.900 636.000 1.000
12.920 629.000 1.000
12.940 635.000 1.000
12.960 636.000 1.000
12.980 644.000 1.000
13.000 667.000 1.000
13.020 655.000 1.000
13.040 664.000 1.000
13.060 658.000 1.000
13.080 642.000 1.000
13.100 625.000 1.000
13.120 651.000 1.000
13.140 643.000 1.000
13.160 632.000 1.000
13.180 660.000 1.000
13.200 632.000 1.000
13.220 643.000 1.000
13.240 630.000 1.000
13.260 631.000 1.000
13.280 638.000 1.000
13.300 632.000 1.000
13.320 631.000 1.000
13.340 639.000 1.000
13.360 660.000 1.000
13.380 670.000 1.000
13.400 645.000 1.000
13.420 647.000 1.000
13.440 644.000 1.000
13.460 640.000 1.000
13.480 645.000 1.000
13.500 657.000 1.000
13.520 652.000 1.000
13.540 658.000 1.000
13.560 665.000 1.000
13.580 647.000 1.000
13.600 633.000 1.000
13.620 620.000 1.000
13.640 614.000 1.000
13.660 642.000 1.000
13.680 634.000 1.000
13.700 640.000 1.000
13.720 635.000 1.000
13.740 641.000 1.000
13.760 672.000 1.000
13.780 660.000 1.000
13.800 674.000 1.000
13.820 642.000 1.000
13.840 676.000 1.000
13.860 697.000 1.000
13.880 639.000 1.000
13.900 639.000 1.000
13.920 632.000 1.000
13.940 634.000 1.000
13.960 649.000 1.000
13.980 631.000 1.000
14.000 620.000 1.000
14.020 642.000 1.000
14.040 661.000 1.000
14.060 683.000 1.000
14.080 675.000 1.000
14.100 676.000 1.000
14.120 679.000 1.000
14.140 707.000 1.000
14.160 699.000 1.000
14.180 658.000 1.000
14.200 649.000 1.000
14.220 661.000 1.000
14.240 688.000 1.000
14.260 680.000 1.000
14.280 665.000 1.000
14.300 669.000 1.000
14.320 679.000 1.000
14.340 656.000 1.000
14.360 670.000 1.000
14.380 661.000 1.000
14.400 635.000 1.000
14.420 633.000 1.000
14.440 664.000 1.000
14.460 657.000 1.000
14.480 680.000 1.000
14.500 677.000 1.000
14.520 675.000 1.000
14.540 690.000 1.000
14.560 677.000 1.000
14.580 690.000 1.000
14.600 704.000 1.000
14.620 681.000 1.000
14.640 698.000 1.000
14.660 689.000 1.000
14.680 680.000 1.000
14.700 697.000 1.000
14.720 728.000 1.000
14.740 713.000 1.000
14.760 701.000 1.000
14.780 692.000 1.000
14.800 696.000 1.000
14.820 717.000 1.000
14.840 717.000 1.000
14.860 681.000 1.000
14.880 674.000 1.000
14.900 693.000 1.000
14.920 726.000 1.000
14.940 726.000 1.000
14.960 719.000 1.000
14.980 713.000 1.000
15.000 719.000 1.000
15.020 776.000 1.000
15.040 767.000 1.000
15.060 756.000 1.000
15.080 809.000 1.000
15.100 867.000 1.000
15.120 901.000 1.000
15.140 975.000 1.000
15.160 1083.000 1.000
15.180 1219.000 1.000
15.200 1408.000 1.000
15.220 1605.000 1.000
15.240 1755.000 1.000
15.260 1765.000 1.000
15.280 1741.000 1.000
15.300 1697.000 1.000
15.320 1597.000 1.000
15.340 1425.000 1.000
15.360 1242.000 1.000
15.380 1121.000 1.000
15.400 995.000 1.000
15.420 902.000 1.000
15.440 862.000 1.000
15.460 824.000 1.000
15.480 787.000 1.000
15.500 764.000 1.000
15.520 758.000 1.000
15.540 727.000 1.000
15.560 701.000 1.000
15.580 697.000 1.000
15.600 734.000 1.000
15.620 719.000 1.000
15.640 696.000 1.000
15.660 718.000 1.000
15.680 725.000 1.000
15.700 719.000 1.000
15.720 727.000 1.000
15.740 739.000 1.000
15.760 691.000 1.000
15.780 673.000 1.000
15.800 680.000 1.000
15.820 664.000 1.000
15.840 671.000 1.000
15.860 713.000 1.000
15.880 695.000 1.000
15.900 689.000 1.000
15.920 709.000 1.000
15.940 711.000 1.000
15.960 679.000 1.000
15.980 695.000 1.000
16.000 698.000 1.000
16.020 739.000 1.000
16.040 746.000 1.000
16.060 721.000 1.000
16.080 686.000 1.000
16.100 698.000 1.000
16.120 710.000 1.000
16.140 701.000 1.000
16.160 689.000 1.000
16.180 693.000 1.000
16.200 720.000 1.000
16.220 723.000 1.000
16.240 685.000 1.000
16.260 669.000 1.000
16.280 686.000 1.000
16.300 698.000 1.000
16.320 696.000 1.000
16.340 707.000 1.000
16.360 719.000 1.000
16.380 712.000 1.000
16.400 699.000 1.000
16.420 696.000 1.000
16.440 706.000 1.000
16.460 679.000 1.000
16.480 693.000 1.000
16.500 682.000 1.000
16.520 664.000 1.000
16.540 666.000 1.000
16.560 683.000 1.000
16.580 691.000 1.000
16.600 699.000 1.000
16.620 730.000 1.000
16.640 692.000 1.000
16.660 708.000 1.000
16.680 720.000 1.000
16.700 728.000 1.000
16.720 714.000 1.000
16.740 676.000 1.000
16.760 682.000 1.000
16.780 681.000 1.000
16.800 705.000 1.000
16.820 688.000 1.000
16.840 689.000 1.000
16.860 708.000 1.000
16.880 699.000 1.000
16.900 703.000 1.000
16.920 728.000 1.000
16.940 732.000 1.000
16.960 718.000 1.000
16.980 709.000 1.000
17.000 697.000 1.000
17.020 672.000 1.000
17.040 697.000 1.000
17.060 725.000 1.000
17.080 713.000 1.000
17.100 737.000 1.000
17.120 746.000 1.000
17.140 725.000 1.000
17.160 717.000 1.000
17.180 701.000 1.000
17.200 717.000 1.000
17.220 705.000 1.000
17.240 707.000 1.000
17.260 725.000 1.000
17.280 709.000 1.000
17.300 688.000 1.000
17.320 690.000 1.000
17.340 739.000 1.000
17.360 717.000 1.000
17.380 698.000 1.000
17.400 703.000 1.000
17.420 712.000 1.000
17.440 723.000 1.000
17.460 729.000 1.000
17.480 728.000 1.000
17.500 733.000 1.000
17.520 728.000 1.000
17.540 721.000 1.000
17.560 695.000 1.000
17.580 716.000 1.000
17.600 723.000 1.000
17.620 706.000 1.000
17.640 707.000 1.000
17.660 731.000 1.000
17.680 720.000 1.000
17.700 719.000 1.000
17.720 677.000 1.000
17.740 683.000 1.000
17.760 716.000 1.000
17.780 742.000 1.000
17.800 727.000 1.000
17.820 715.000 1.000
17.840 691.000 1.000
17.860 681.000 1.000
17.880 704.000 1.000
17.900 720.000 1.000
17.920 713.000 1.000
17.940 700.000 1.000
17.960 707.000 1.000
17.980 722.000 1.000
18.000 759.000 1.000
18.020 768.000 1.000
18.040 715.000 1.000
18.060 704.000 1.000
18.080 730.000 1.000
18.100 706.000 1.000
18.120 699.000 1.000
18.140 687.000 1.000
18.160 699.000 1.000
18.180 739.000 1.000
18.200 750.000 1.000
18.220 747.000 1.000
18.240 734.000 1.000
18.260 708.000 1.000
18.280 743.000 1.000
18.300 773.000 1.000
18.320 738.000 1.000
18.340 757.000 1.000
18.360 796.000 1.000
18.380 782.000 1.000
18.400 767.000 1.000
18.420 779.000 1.000
18.440 775.000 1.000
18.460 781.000 1.000
18.480 818.000 1.000
18.500 840.000 1.000
18.520 857.000 1.000
18.540 879.000 1.000
18.560 857.000 1.000
18.580 850.000 1.000
18.600 841.000 1.000
18.620 863.000 1.000
18.640 889.000 1.000
18.660 874.000 1.000
18.680 887.000 1.000
18.700 952.000 1.000
18.720 1012.000 1.000
18.740 1066.000 1.000
18.760 1189.000 1.000
18.780 1350.000 1.000
18.800 1620.000 1.000
18.820 1981.000 1.000
18.840 2454.000 1.000
18.860 3093.000 1.000
18.880 3924.000 1.000
18.900 4848.000 1.000
18.920 5545.000 1.000
18.940 5794.000 1.000
18.960 5535.000 1.000
18.980 5027.000 1.000
19.000 4235.000 1.000
19.020 3327.000 1.000
19.040 2574.000 1.000
19.060 1998.000 1.000
19.080 1608.000 1.000
19.100 1346.000 1.000
19.120 1164.000 1.000
19.140 1052.000 1.000
19.160 993.000 1.000
19.180 950.000 1.000
19.200 940.000 1.000
19.220 909.000 1.000
19.240 912.000 1.000
19.260 877.000 1.000
19.280 877.000 1.000
19.300 844.000 1.000
19.320 842.000 1.000
19.340 824.000 1.000
19.360 805.000 1.000
19.380 818.000 1.000
19.400 818.000 1.000
19.420 776.000 1.000
19.440 762.000 1.000
19.460 742.000 1.000
19.480 739.000 1.000
19.500 755.000 1.000
19.520 775.000 1.000
19.540 784.000 1.000
19.560 778.000 1.000
19.580 750.000 1.000
19.600 764.000 1.000
19.620 778.000 1.000
19.640 800.000 1.000
19.660 788.000 1.000
19.680 759.000 1.000
19.700 779.000 1.000
19.720 767.000 1.000
19.740 756.000 1.000
19.760 757.000 1.000
19.780 787.000 1.000
19.800 763.000 1.000
19.820 756.000 1.000
19.840 783.000 1.000
19.860 753.000 1.000
19.880 729.000 1.000
19.900 733.000 1.000
19.920 728.000 1.000
19.940 739.000 1.000
19.960 759.000 1.000
19.980 742.000 1.000
20.000 762.000 1.000
20.020 772.000 1.000
20.040 755.000 1.000
20.060 771.000 1.000
20.080 769.000 1.000
20.100 782.000 1.000
20.120 799.000 1.000
20.140 792.000 1.000
20.160 756.000 1.000
20.180 752.000 1.000
20.200 757.000 1.000
20.220 794.000 1.000
20.240 790.000 1.000
20.260 781.000 1.000
20.280 775.000 1.000
20.300 765.000 1.000
20.320 763.000 1.000
20.340 740.000 1.000
20.360 744.000 1.000
20.380 759.000 1.000
20.400 771.000 1.000
20.420 745.000 1.000
20.440 741.000 1.000
20.460 756.000 1.000
20.480 754.000 1.000
20.500 743.000 1.000
20.520 763.000 1.000
20.540 756.000 1.000
20.560 757.000 1.000
20.580 786.000 1.000
20.600 782.000 1.000
20.620 777.000 1.000
20.640 775.000 1.000
20.660 767.000 1.000
20.680 771.000 1.000
20.700 774.000 1.000
20.720 742.000 1.000
20.740 777.000 1.000
20.760 785.000 1.000
20.780 770.000 1.000
20.800 777.000 1.000
20.820 776.000 1.000
20.840 784.000 1.000
20.860 781.000 1.000
20.880 740.000 1.000
20.900 761.000 1.000
20.920 788.000 1.000
20.940 747.000 1.000
20.960 753.000 1.000
20.980 779.000 1.000
21.000 792.000 1.000
21.020 780.000 1.000
21.040 737.000 1.000
21.060 730.000 1.000
21.080 771.000 1.000
21.100 768.000 1.000
21.120 785.000 1.000
21.140 781.000 1.000
21.160 763.000 1.000
21.180 763.000 1.000
21.200 749.000 1.000
21.220 779.000 1.000
21.240 772.000 1.000
21.260 756.000 1.000
21.280 785.000 1.000
21.300 774.000 1.000
21.320 786.000 1.000
21.340 770.000 1.000
21.360 741.000 1.000
21.380 779.000 1.000
21.400 774.000 1.000
21.420 765.000 1.000
21.440 769.000 1.000
21.460 783.000 1.000
21.480 780.000 1.000
21.500 802.000 1.000
21.520 791.000 1.000
21.540 750.000 1.000
21.560 769.000 1.000
21.580 777.000 1.000
21.600 768.000 1.000
21.620 774.000 1.000
21.640 792.000 1.000
21.660 773.000 1.000
21.680 777.000 1.000
21.700 783.000 1.000
21.720 780.000 1.000
21.740 771.000 1.000
21.760 779.000 1.000
21.780 798.000 1.000
21.800 793.000 1.000
21.820 766.000 1.000
21.840 787.000 1.000
21.860 792.000 1.000
21.880 788.000 1.000
21.900 788.000 1.000
21.920 791.000 1.000
21.940 809.000 1.000
21.960 798.000 1.000
21.980 775.000 1.000
22.000 780.000 1.000
22.020 776.000 1.000
22.040 760.000 1.000
22.060 757.000 1.000
22.080 765.000 1.000
22.100 781.000 1.000
22.120 774.000 1.000
22.140 754.000 1.000
22.160 769.000 1.000
22.180 779.000 1.000
22.200 777.000 1.000
22.220 772.000 1.000
22.240 778.000 1.000
22.260 746.000 1.000
22.280 761.000 1.000
22.300 797.000 1.000
22.320 816.000 1.000
22.340 826.000 1.000
22.360 821.000 1.000
22.380 793.000 1.000
22.400 797.000 1.000
22.420 809.000 1.000
22.440 796.000 1.000
22.460 777.000 1.000
22.480 810.000 1.000
22.500 835.000 1.000
22.520 831.000 1.000
22.540 845.000 1.000
22.560 837.000 1.000
22.580 817.000 1.000
22.600 819.000 1.000
22.620 808.000 1.000
22.640 837.000 1.000
22.660 870.000 1.000
22.680 881.000 1.000
22.700 875.000 1.000
22.720 869.000 1.000
22.740 872.000 1.000
22.760 914.000 1.000
22.780 946.000 1.000
22.800 968.000 1.000
22.820 984.000 1.000
22.840 999.000 1.000
22.860 1021.000 1.000
22.880 1065.000 1.000
22.900 1088.000 1.000
22.920 1108.000 1.000
22.940 1125.000 1.000
22.960 1214.000 1.000
22.980 1309.000 1.000
23.000 1392.000 1.000
23.020 1471.000 1.000
23.040 1544.000 1.000
23.060 1584.000 1.000
23.080 1596.000 1.000
23.100 1620.000 1.000
23.120 1646.000 1.000
23.140 1692.000 1.000
23.160 1717.000 1.000
23.180 1742.000 1.000
23.200 1779.000 1.000
23.220 1777.000 1.000
23.240 1750.000 1.000
23.260 1729.000 1.000
23.280 1723.000 1.000
23.300 1705.000 1.000
23.320 1663.000 1.000
23.340 1634.000 1.000
23.360 1684.000 1.000
23.380 1768.000 1.000
23.400 1827.000 1.000
23.420 1911.000 1.000
23.440 2087.000 1.000
23.460 2360.000 1.000
23.480 2564.000 1.000
23.500 2787.000 1.000
23.520 3006.000 1.000
23.540 3190.000 1.000
23.560 3298.000 1.000
23.580 3222.000 1.000
23.600 3079.000 1.000
23.620 2923.000 1.000
23.640 2684.000 1.000
23.660 2500.000 1.000
23.680 2365.000 1.000
23.700 2160.000 1.000
23.720 2091.000 1.000
23.740 2016.000 1.000
23.760 1984.000 1.000
23.780 2016.000 1.000
23.800 2076.000 1.000
23.820 2166.000 1.000
23.840 2345.000 1.000
23.860 2549.000 1.000
23.880 2768.000 1.000
23.900 3057.000 1.000
23.920 3256.000 1.000
23.940 3241.000 1.000
23.960 3195.000 1.000
23.980 2963.000 1.000
24.000 2628.000 1.000
24.020 2310.000 1.000
24.040 2013.000 1.000
24.060 1712.000 1.000
24.080 1483.000 1.000
24.100 1336.000 1.000
24.120 1212.000 1.000
24.140 1121.000 1.000
24.160 1094.000 1.000
24.180 1066.000 1.000
24.200 1060.000 1.000
24.220 1021.000 1.000
24.240 1001.000 1.000
24.260 1007.000 1.000
24.280 1007.000 1.000
24.300 983.000 1.000
24.320 972.000 1.000
24.340 980.000 1.000
24.360 962.000 1.000
24.380 923.000 1.000
24.400 898.000 1.000
24.420 886.000 1.000
24.440 905.000 1.000
24.460 929.000 1.000
24.480 929.000 1.000
24.500 945.000 1.000
24.520 928.000 1.000
24.540 903.000 1.000
24.560 895.000 1.000
24.580 922.000 1.000
24.600 938.000 1.000
24.620 941.000 1.000
24.640 905.000 1.000
24.660 885.000 1.000
24.680 890.000 1.000
24.700 891.000 1.000
24.720 918.000 1.000
24.740 932.000 1.000
24.760 956.000 1.000
24.780 938.000 1.000
24.800 915.000 1.000
24.820 912.000 1.000
24.840 956.000 1.000
24.860 967.000 1.000
24.880 942.000 1.000
24.900 958.000 1.000
24.920 980.000 1.000
24.940 973.000 1.000
24.960 978.000 1.000
24.980 960.000 1.000
25.000 952.000 1.000
25.020 967.000 1.000
25.040 976.000 1.000
25.060 978.000 1.000
25.080 986.000 1.000
25.100 1001.000 1.000
25.120 1027.000 1.000
25.140 1047.000 1.000
25.160 1048.000 1.000
25.180 1061.000 1.000
25.200 1100.000 1.000
25.220 1130.000 1.000
25.240 1175.000 1.000
25.260 1175.000 1.000
25.280 1186.000 1.000
25.300 1241.000 1.000
25.320 1336.000 1.000
25.340 1376.000 1.000
25.360 1361.000 1.000
25.380 1369.000 1.000
25.400 1438.000 1.000
25.420 1552.000 1.000
25.440 1655.000 1.000
25.460 1764.000 1.000
25.480 1822.000 1.000
25.500 1913.000 1.000
25.520 2007.000 1.000
25.540 2041.000 1.000
25.560 2152.000 1.000
25.580 2262.000 1.000
25.600 2361.000 1.000
25.620 2441.000 1.000
25.640 2446.000 1.000
25.660 2480.000 1.000
25.680 2518.000 1.000
25.700 2547.000 1.000
25.720 2446.000 1.000
25.740 2294.000 1.000
25.760 2161.000 1.000
25.780 2039.000 1.000
25.800 1861.000 1.000
25.820 1704.000 1.000
25.840 1589.000 1.000
25.860 1437.000 1.000
25.880 1298.000 1.000
25.900 1221.000 1.000
25.920 1167.000 1.000
25.940 1091.000 1.000
25.960 1036.000 1.000
25.980 1013.000 1.000
26.000 1015.000 1.000
26.020 993.000 1.000
26.040 926.000 1.000
26.060 897.000 1.000
26.080 941.000 1.000
26.100 943.000 1.000
26.120 915.000 1.000
26.140 900.000 1.000
26.160 921.000 1.000
26.180 957.000 1.000
26.200 945.000 1.000
26.220 920.000 1.000
26.240 891.000 1.000
26.260 876.000 1.000
26.280 875.000 1.000
26.300 871.000 1.000
26.320 889.000 1.000
26.340 863.000 1.000
26.360 876.000 1.000
26.380 885.000 1.000
26.400 877.000 1.000
26.420 879.000 1.000
26.440 878.000 1.000
26.460 854.000 1.000
26.480 875.000 1.000
26.500 901.000 1.000
26.520 901.000 1.000
26.540 908.000 1.000
26.560 903.000 1.000
26.580 877.000 1.000
26.600 881.000 1.000
26.620 907.000 1.000
26.640 924.000 1.000
26.660 908.000 1.000
26.680 903.000 1.000
26.700 926.000 1.000
26.720 933.000 1.000
26.740 937.000 1.000
26.760 916.000 1.000
26.780 905.000 1.000
26.800 932.000 1.000
26.820 971.000 1.000
26.840 949.000 1.000
26.860 925.000 1.000
26.880 926.000 1.000
26.900 915.000 1.000
26.920 905.000 1.000
26.940 897.000 1.000
26.960 885.000 1.000
26.980 876.000 1.000
27.000 876.000 1.000
27.020 882.000 1.000
27.040 874.000 1.000
27.060 858.000 1.000
27.080 865.000 1.000
27.100 865.000 1.000
27.120 869.000 1.000
27.140 886.000 1.000
27.160 852.000 1.000
27.180 847.000 1.000
27.200 859.000 1.000
27.220 844.000 1.000
27.240 861.000 1.000
27.260 865.000 1.000
27.280 855.000 1.000
27.300 871.000 1.000
27.320 856.000 1.000
27.340 822.000 1.000
27.360 836.000 1.000
27.380 868.000 1.000
27.400 860.000 1.000
27.420 846.000 1.000
27.440 872.000 1.000
27.460 877.000 1.000
27.480 855.000 1.000
27.500 876.000 1.000
27.520 891.000 1.000
27.540 858.000 1.000
27.560 861.000 1.000
27.580 867.000 1.000
27.600 829.000 1.000
27.620 841.000 1.000
27.640 853.000 1.000
27.660 855.000 1.000
27.680 866.000 1.000
27.700 866.000 1.000
27.720 879.000 1.000
27.740 875.000 1.000
27.760 872.000 1.000
27.780 875.000 1.000
27.800 889.000 1.000
27.820 902.000 1.000
27.840 877.000 1.000
27.860 861.000 1.000
27.880 872.000 1.000
27.900 864.000 1.000
27.920 867.000 1.000
27.940 882.000 1.000
27.960 856.000 1.000
27.980 890.000 1.000
28.000 918.000 1.000
28.020 897.000 1.000
28.040 914.000 1.000
28.060 923.000 1.000
28.080 918.000 1.000
28.100 911.000 1.000
28.120 893.000 1.000
28.140 913.000 1.000
28.160 922.000 1.000
28.180 898.000 1.000
28.200 909.000 1.000
28.220 941.000 1.000
28.240 972.000 1.000
28.260 969.000 1.000
28.280 952.000 1.000
28.300 953.000 1.000
28.320 969.000 1.000
28.340 965.000 1.000
28.360 986.000 1.000
28.380 995.000 1.000
28.400 982.000 1.000
28.420 1013.000 1.000
28.440 1030.000 1.000
28.460 1020.000 1.000
28.480 1039.000 1.000
28.500 1046.000 1.000
28.520 1041.000 1.000
28.540 1074.000 1.000
28.560 1158.000 1.000
28.580 1196.000 1.000
28.600 1212.000 1.000
28.620 1319.000 1.000
28.640 1402.000 1.000
28.660 1446.000 1.000
28.680 1533.000 1.000
28.700 1625.000 1.000
28.720 1726.000 1.000
28.740 1838.000 1.000
28.760 1938.000 1.000
28.780 2069.000 1.000
28.800 2241.000 1.000
28.820 2365.000 1.000
28.840 2424.000 1.000
28.860 2504.000 1.000
28.880 2624.000 1.000
28.900 2739.000 1.000
28.920 2830.000 1.000
28.940 2916.000 1.000
28.960 3008.000 1.000
28.980 3047.000 1.000
29.000 3062.000 1.000
29.020 3060.000 1.000
29.040 3009.000 1.000
29.060 2975.000 1.000
29.080 2957.000 1.000
29.100 2899.000 1.000
29.120 2836.000 1.000
29.140 2769.000 1.000
29.160 2729.000 1.000
29.180 2674.000 1.000
29.200 2560.000 1.000
29.220 2433.000 1.000
29.240 2339.000 1.000
29.260 2305.000 1.000
29.280 2250.000 1.000
29.300 2149.000 1.000
29.320 2105.000 1.000
29.340 2127.000 1.000
29.360 2082.000 1.000
29.380 1961.000 1.000
29.400 1906.000 1.000
29.420 1887.000 1.000
29.440 1808.000 1.000
29.460 1727.000 1.000
29.480 1690.000 1.000
29.500 1661.000 1.000
29.520 1627.000 1.000
29.540 1654.000 1.000
29.560 1628.000 1.000
29.580 1511.000 1.000
29.600 1470.000 1.000
29.620 1504.000 1.000
29.640 1492.000 1.000
29.660 1474.000 1.000
29.680 1469.000 1.000
29.700 1444.000 1.000
29.720 1444.000 1.000
29.740 1461.000 1.000
29.760 1481.000 1.000
29.780 1435.000 1.000
29.800 1435.000 1.000
29.820 1452.000 1.000
29.840 1465.000 1.000
29.860 1502.000 1.000
29.880 1525.000 1.000
29.900 1613.000 1.000
29.920 1739.000 1.000
29.940 1780.000 1.000
29.960 1898.000 1.000
29.980 2225.000 1.000
30.000 2584.000 1.000
30.020 2937.000 1.000
30.040 3388.000 1.000
30.060 3883.000 1.000
30.080 4366.000 1.000
30.100 4791.000 1.000
30.120 5029.000 1.000
30.140 5110.000 1.000
30.160 4989.000 1.000
30.180 4761.000 1.000
30.200 4516.000 1.000
30.220 4138.000 1.000
30.240 3805.000 1.000
30.260 3531.000 1.000
30.280 3150.000 1.000
30.300 2840.000 1.000
30.320 2590.000 1.000
30.340 2385.000 1.000
30.360 2200.000 1.000
30.380 2049.000 1.000
30.400 1975.000 1.000
30.420 1865.000 1.000
30.440 1745.000 1.000
30.460 1679.000 1.000
30.480 1659.000 1.000
30.500 1581.000 1.000
30.520 1497.000 1.000
30.540 1478.000 1.000
30.560 1465.000 1.000
30.580 1452.000 1.000
30.600 1489.000 1.000
30.620 1506.000 1.000
30.640 1477.000 1.000
30.660 1495.000 1.000
30.680 1521.000 1.000
30.700 1564.000 1.000
30.720 1686.000 1.000
30.740 1779.000 1.000
30.760 1810.000 1.000
30.780 1899.000 1.000
30.800 2025.000 1.000
30.820 2145.000 1.000
30.840 2289.000 1.000
30.860 2453.000 1.000
30.880 2598.000 1.000
30.900 2718.000 1.000
30.920 2751.000 1.000
30.940 2766.000 1.000
30.960 2751.000 1.000
30.980 2725.000 1.000
31.000 2703.000 1.000
31.020 2619.000 1.000
31.040 2611.000 1.000
31.060 2618.000 1.000
31.080 2610.000 1.000
31.100 2595.000 1.000
31.120 2623.000 1.000
31.140 2611.000 1.000
31.160 2595.000 1.000
31.180 2731.000 1.000
31.200 2848.000 1.000
31.220 2937.000 1.000
31.240 3061.000 1.000
31.260 3185.000 1.000
31.280 3342.000 1.000
31.300 3523.000 1.000
31.320 3680.000 1.000
31.340 3823.000 1.000
31.360 3962.000 1.000
31.380 4046.000 1.000
31.400 4008.000 1.000
31.420 3954.000 1.000
31.440 3839.000 1.000
31.460 3634.000 1.000
31.480 3450.000 1.000
31.500 3231.000 1.000
31.520 2994.000 1.000
31.540 2822.000 1.000
31.560 2730.000 1.000
31.580 2652.000 1.000
31.600 2621.000 1.000
31.620 2605.000 1.000
31.640 2557.000 1.000
31.660 2633.000 1.000
31.680 2775.000 1.000
31.700 2823.000 1.000
31.720 2835.000 1.000
31.740 2866.000 1.000
31.760 2927.000 1.000
31.780 3014.000 1.000
31.800 2996.000 1.000
31.820 2909.000 1.000
31.840 2844.000 1.000
31.860 2788.000 1.000
31.880 2702.000 1.000
31.900 2518.000 1.000
31.920 2325.000 1.000
31.940 2160.000 1.000
31.960 1980.000 1.000
31.980 1846.000 1.000
32.000 1742.000 1.000
32.020 1604.000 1.000
32.040 1489.000 1.000
32.060 1378.000 1.000
32.080 1278.000 1.000
32.100 1210.000 1.000
32.120 1141.000 1.000
32.140 1089.000 1.000
32.160 1106.000 1.000
32.180 1114.000 1.000
32.200 1099.000 1.000
32.220 1097.000 1.000
32.240 1102.000 1.000
32.260 1127.000 1.000
32.280 1154.000 1.000
32.300 1181.000 1.000
32.320 1217.000 1.000
32.340 1228.000 1.000
32.360 1299.000 1.000
32.380 1468.000 1.000
32.400 1608.000 1.000
32.420 1690.000 1.000
32.440 1699.000 1.000
32.460 1623.000 1.000
32.480 1546.000 1.000
32.500 1469.000 1.000
32.520 1402.000 1.000
32.540 1317.000 1.000
32.560 1175.000 1.000
32.580 1094.000 1.000
32.600 1071.000 1.000
32.620 1011.000 1.000
32.640 961.000 1.000
32.660 951.000 1.000
32.680 991.000 1.000
32.700 977.000 1.000
32.720 961.000 1.000
32.740 986.000 1.000
32.760 955.000 1.000
32.780 912.000 1.000
32.800 918.000 1.000
32.820 926.000 1.000
32.840 931.000 1.000
32.860 941.000 1.000
32.880 921.000 1.000
32.900 898.000 1.000
32.920 915.000 1.000
32.940 933.000 1.000
32.960 929.000 1.000
32.980 898.000 1.000
33.000 901.000 1.000
33.020 913.000 1.000
33.040 900.000 1.000
33.060 900.000 1.000
33.080 890.000 1.000
33.100 883.000 1.000
33.120 902.000 1.000
33.140 903.000 1.000
33.160 906.000 1.000
33.180 943.000 1.000
33.200 947.000 1.000
33.220 928.000 1.000
33.240 933.000 1.000
33.260 944.000 1.000
33.280 930.000 1.000
33.300 927.000 1.000
33.320 940.000 1.000
33.340 915.000 1.000
33.360 881.000 1.000
33.380 883.000 1.000
33.400 919.000 1.000
33.420 939.000 1.000
33.440 921.000 1.000
33.460 884.000 1.000
33.480 890.000 1.000
33.500 873.000 1.000
33.520 863.000 1.000
33.540 897.000 1.000
33.560 897.000 1.000
33.580 918.000 1.000
33.600 917.000 1.000
33.620 886.000 1.000
33.640 907.000 1.000
33.660 947.000 1.000
33.680 955.000 1.000
33.700 932.000 1.000
33.720 948.000 1.000
33.740 940.000 1.000
33.760 914.000 1.000
33.780 927.000 1.000
33.800 916.000 1.000
33.820 906.000 1.000
33.840 921.000 1.000
33.860 961.000 1.000
33.880 951.000 1.000
33.900 922.000 1.000
33.920 904.000 1.000
33.940 900.000 1.000
33.960 926.000 1.000
33.980 944.000 1.000
34.000 930.000 1.000
34.020 904.000 1.000
34.040 903.000 1.000
34.060 908.000 1.000
34.080 936.000 1.000
34.100 960.000 1.000
34.120 958.000 1.000
34.140 951.000 1.000
34.160 939.000 1.000
34.180 947.000 1.000
34.200 951.000 1.000
34.220 943.000 1.000
34.240 972.000 1.000
34.260 971.000 1.000
34.280 964.000 1.000
34.300 946.000 1.000
34.320 915.000 1.000
34.340 938.000 1.000
34.360 997.000 1.000
34.380 1046.000 1.000
34.400 1020.000 1.000
34.420 992.000 1.000
34.440 1008.000 1.000
34.460 1034.000 1.000
34.480 1050.000 1.000
34.500 1058.000 1.000
34.520 1066.000 1.000
34.540 1104.000 1.000
34.560 1093.000 1.000
34.580 1084.000 1.000
34.600 1086.000 1.000
34.620 1084.000 1.000
34.640 1075.000 1.000
34.660 1099.000 1.000
34.680 1145.000 1.000
34.700 1129.000 1.000
34.720 1140.000 1.000
34.740 1166.000 1.000
34.760 1161.000 1.000
34.780 1176.000 1.000
34.800 1199.000 1.000
34.820 1183.000 1.000
34.840 1203.000 1.000
34.860 1238.000 1.000
34.880 1174.000 1.000
34.900 1172.000 1.000
34.920 1209.000 1.000
34.940 1220.000 1.000
34.960 1227.000 1.000
34.980 1231.000 1.000
35.000 1256.000 1.000
35.020 1272.000 1.000
35.040 1305.000 1.000
35.060 1351.000 1.000
35.080 1370.000 1.000
35.100 1369.000 1.000
35.120 1437.000 1.000
35.140 1457.000 1.000
35.160 1496.000 1.000
35.180 1575.000 1.000
35.200 1636.000 1.000
35.220 1747.000 1.000
35.240 1835.000 1.000
35.260 1995.000 1.000
35.280 2385.000 1.000
35.300 2789.000 1.000
35.320 3205.000 1.000
35.340 3745.000 1.000
35.360 4295.000 1.000
35.380 4818.000 1.000
35.400 5617.000 1.000
35.420 6746.000 1.000
35.440 7830.000 1.000
35.460 8307.000 1.000
35.480 7961.000 1.000
35.500 7098.000 1.000
35.520 6453.000 1.000
35.540 5984.000 1.000
35.560 5368.000 1.000
35.580 4687.000 1.000
35.600 4004.000 1.000
35.620 3337.000 1.000
35.640 2929.000 1.000
35.660 2779.000 1.000
35.680 2708.000 1.000
35.700 2636.000 1.000
35.720 2631.000 1.000
35.740 2665.000 1.000
35.760 2642.000 1.000
35.780 2583.000 1.000
35.800 2559.000 1.000
35.820 2570.000 1.000
35.840 2525.000 1.000
35.860 2401.000 1.000
35.880 2339.000 1.000
35.900 2243.000 1.000
35.920 2120.000 1.000
35.940 2061.000 1.000
35.960 2004.000 1.000
35.980 1909.000 1.000
36.000 1810.000 1.000
36.020 1742.000 1.000
36.040 1680.000 1.000
36.060 1642.000 1.000
36.080 1650.000 1.000
36.100 1643.000 1.000
36.120 1611.000 1.000
36.140 1620.000 1.000
36.160 1724.000 1.000
36.180 1765.000 1.000
36.200 1860.000 1.000
36.220 1997.000 1.000
36.240 2139.000 1.000
36.260 2360.000 1.000
36.280 2574.000 1.000
36.300 2725.000 1.000
36.320 2738.000 1.000
36.340 2684.000 1.000
36.360 2670.000 1.000
36.380 2618.000 1.000
36.400 2540.000 1.000
36.420 2429.000 1.000
36.440 2281.000 1.000
36.460 2271.000 1.000
36.480 2315.000 1.000
36.500 2375.000 1.000
36.520 2492.000 1.000
36.540 2678.000 1.000
36.560 2852.000 1.000
36.580 3012.000 1.000
36.600 3245.000 1.000
36.620 3392.000 1.000
36.640 3393.000 1.000
36.660 3383.000 1.000
36.680 3238.000 1.000
36.700 3021.000 1.000
36.720 2791.000 1.000
36.740 2493.000 1.000
36.760 2272.000 1.000
36.780 2048.000 1.000
36.800 1800.000 1.000
36.820 1605.000 1.000
36.840 1496.000 1.000
36.860 1391.000 1.000
36.880 1277.000 1.000
36.900 1168.000 1.000
36.920 1129.000 1.000
36.940 1121.000 1.000
36.960 1138.000 1.000
36.980 1116.000 1.000
37.000 1049.000 1.000
37.020 1035.000 1.000
37.040 1062.000 1.000
37.060 1050.000 1.000
37.080 1033.000 1.000
37.100 1019.000 1.000
37.120 1027.000 1.000
37.140 1018.000 1.000
37.160 1014.000 1.000
37.180 1029.000 1.000
37.200 1030.000 1.000
37.220 991.000 1.000
37.240 975.000 1.000
37.260 972.000 1.000
37.280 986.000 1.000
37.300 1006.000 1.000
37.320 996.000 1.000
37.340 1013.000 1.000
37.360 997.000 1.000
37.380 986.000 1.000
37.400 1021.000 1.000
37.420 1018.000 1.000
37.440 1001.000 1.000
37.460 1016.000 1.000
37.480 1004.000 1.000
37.500 1008.000 1.000
37.520 1002.000 1.000
37.540 1019.000 1.000
37.560 1034.000 1.000
37.580 1019.000 1.000
37.600 1007.000 1.000
37.620 992.000 1.000
37.640 1016.000 1.000
37.660 1031.000 1.000
37.680 1022.000 1.000
37.700 1001.000 1.000
37.720 1025.000 1.000
37.740 1065.000 1.000
37.760 1077.000 1.000
37.780 1094.000 1.000
37.800 1074.000 1.000
37.820 1059.000 1.000
37.840 1061.000 1.000
37.860 1038.000 1.000
37.880 1056.000 1.000
37.900 1102.000 1.000
37.920 1132.000 1.000
37.940 1138.000 1.000
37.960 1114.000 1.000
37.980 1126.000 1.000
38.000 1145.000 1.000
38.020 1171.000 1.000
38.040 1189.000 1.000
38.060 1160.000 1.000
38.080 1203.000 1.000
38.100 1272.000 1.000
38.120 1297.000 1.000
38.140 1334.000 1.000
38.160 1336.000 1.000
38.180 1359.000 1.000
38.200 1360.000 1.000
38.220 1385.000 1.000
38.240 1436.000 1.000
38.260 1448.000 1.000
38.280 1455.000 1.000
38.300 1486.000 1.000
38.320 1578.000 1.000
38.340 1660.000 1.000
38.360 1757.000 1.000
38.380 1899.000 1.000
38.400 2070.000 1.000
38.420 2311.000 1.000
38.440 2631.000 1.000
38.460 3008.000 1.000
38.480 3384.000 1.000
38.500 3796.000 1.000
38.520 4266.000 1.000
38.540 4680.000 1.000
38.560 5108.000 1.000
38.580 5417.000 1.000
38.600 5721.000 1.000
38.620 6074.000 1.000
38.640 6146.000 1.000
38.660 5987.000 1.000
38.680 5542.000 1.000
38.700 5024.000 1.000
38.720 4667.000 1.000
38.740 4274.000 1.000
38.760 3838.000 1.000
38.780 3467.000 1.000
38.800 3112.000 1.000
38.820 2764.000 1.000
38.840 2532.000 1.000
38.860 2334.000 1.000
38.880 2234.000 1.000
38.900 2057.000 1.000
38.920 1895.000 1.000
38.940 1824.000 1.000
38.960 1754.000 1.000
38.980 1636.000 1.000
39.000 1508.000 1.000
39.020 1460.000 1.000
39.040 1413.000 1.000
39.060 1306.000 1.000
39.080 1270.000 1.000
39.100 1269.000 1.000
39.120 1236.000 1.000
39.140 1202.000 1.000
39.160 1141.000 1.000
39.180 1102.000 1.000
39.200 1119.000 1.000
39.220 1093.000 1.000
39.240 1072.000 1.000
39.260 1091.000 1.000
39.280 1071.000 1.000
39.300 1059.000 1.000
39.320 1068.000 1.000
39.340 1053.000 1.000
39.360 1022.000 1.000
39.380 996.000 1.000
39.400 976.000 1.000
39.420 961.000 1.000
39.440 979.000 1.000
39.460 992.000 1.000
39.480 994.000 1.000
39.500 1001.000 1.000
39.520 1012.000 1.000
39.540 999.000 1.000
39.560 1015.000 1.000
39.580 1042.000 1.000
39.600 1080.000 1.000
39.620 1098.000 1.000
39.640 1090.000 1.000
39.660 1101.000 1.000
39.680 1120.000 1.000
39.700 1130.000 1.000
39.720 1143.000 1.000
39.740 1136.000 1.000
39.760 1110.000 1.000
39.780 1105.000 1.000
39.800 1119.000 1.000
39.820 1143.000 1.000
39.840 1170.000 1.000
39.860 1193.000 1.000
39.880 1164.000 1.000
39.900 1156.000 1.000
39.920 1178.000 1.000
39.940 1246.000 1.000
39.960 1280.000 1.000
39.980 1274.000 1.000
40.000 1301.000 1.000
40.020 1319.000 1.000
40.040 1287.000 1.000
40.060 1277.000 1.000
40.080 1289.000 1.000
40.100 1272.000 1.000
40.120 1293.000 1.000
40.140 1285.000 1.000
40.160 1244.000 1.000
40.180 1230.000 1.000
40.200 1237.000 1.000
40.220 1262.000 1.000
40.240 1265.000 1.000
40.260 1203.000 1.000
40.280 1149.000 1.000
40.300 1126.000 1.000
40.320 1131.000 1.000
40.340 1126.000 1.000
40.360 1087.000 1.000
40.380 1095.000 1.000
40.400 1089.000 1.000
40.420 1062.000 1.000
40.440 1048.000 1.000
40.460 1067.000 1.000
40.480 1071.000 1.000
40.500 1053.000 1.000
40.520 1039.000 1.000
40.540 1023.000 1.000
40.560 1033.000 1.000
40.580 1075.000 1.000
40.600 1061.000 1.000
40.620 1007.000 1.000
40.640 987.000 1.000
40.660 1007.000 1.000
40.680 1004.000 1.000
40.700 1012.000 1.000
40.720 1064.000 1.000
40.740 1075.000 1.000
40.760 1073.000 1.000
40.780 1047.000 1.000
40.800 1075.000 1.000
40.820 1096.000 1.000
40.840 1128.000 1.000
40.860 1160.000 1.000
40.880 1200.000 1.000
40.900 1295.000 1.000
40.920 1359.000 1.000
40.940 1506.000 1.000
40.960 1684.000 1.000
40.980 1786.000 1.000
41.000 1903.000 1.000
41.020 1962.000 1.000
41.040 1958.000 1.000
41.060 1963.000 1.000
41.080 1969.000 1.000
41.100 1872.000 1.000
41.120 1754.000 1.000
41.140 1675.000 1.000
41.160 1603.000 1.000
41.180 1562.000 1.000
41.200 1447.000 1.000
41.220 1300.000 1.000
41.240 1226.000 1.000
41.260 1186.000 1.000
41.280 1155.000 1.000
41.300 1127.000 1.000
41.320 1092.000 1.000
41.340 1046.000 1.000
41.360 1018.000 1.000
41.380 1022.000 1.000
41.400 1000.000 1.000
41.420 1036.000 1.000
41.440 1021.000 1.000
41.460 994.000 1.000
41.480 1013.000 1.000
41.500 980.000 1.000
41.520 960.000 1.000
41.540 949.000 1.000
41.560 967.000 1.000
41.580 976.000 1.000
41.600 950.000 1.000
41.620 930.000 1.000
41.640 912.000 1.000
41.660 956.000 1.000
41.680 980.000 1.000
41.700 958.000 1.000
41.720 958.000 1.000
41.740 954.000 1.000
41.760 955.000 1.000
41.780 983.000 1.000
41.800 969.000 1.000
41.820 976.000 1.000
41.840 1011.000 1.000
41.860 1020.000 1.000
41.880 1009.000 1.000
41.900 1006.000 1.000
41.920 986.000 1.000
41.940 996.000 1.000
41.960 1004.000 1.000
41.980 989.000 1.000
42.000 1046.000 1.000
42.020 1102.000 1.000
42.040 1031.000 1.000
42.060 1043.000 1.000
42.080 1052.000 1.000
42.100 1087.000 1.000
42.120 1107.000 1.000
42.140 1098.000 1.000
42.160 1088.000 1.000
42.180 1133.000 1.000
42.200 1175.000 1.000
42.220 1157.000 1.000
42.240 1186.000 1.000
42.260 1155.000 1.000
42.280 1175.000 1.000
42.300 1191.000 1.000
42.320 1239.000 1.000
42.340 1263.000 1.000
42.360 1215.000 1.000
42.380 1227.000 1.000
42.400 1242.000 1.000
42.420 1240.000 1.000
42.440 1254.000 1.000
42.460 1314.000 1.000
42.480 1345.000 1.000
42.500 1361.000 1.000
42.520 1346.000 1.000
42.540 1403.000 1.000
42.560 1428.000 1.000
42.580 1461.000 1.000
42.600 1463.000 1.000
42.620 1457.000 1.000
42.640 1468.000 1.000
42.660 1458.000 1.000
42.680 1431.000 1.000
42.700 1460.000 1.000
42.720 1479.000 1.000
42.740 1484.000 1.000
42.760 1464.000 1.000
42.780 1412.000 1.000
42.800 1368.000 1.000
42.820 1347.000 1.000
42.840 1295.000 1.000
42.860 1293.000 1.000
42.880 1314.000 1.000
42.900 1268.000 1.000
42.920 1224.000 1.000
42.940 1187.000 1.000
42.960 1211.000 1.000
42.980 1191.000 1.000
43.000 1195.000 1.000
43.020 1186.000 1.000
43.040 1213.000 1.000
43.060 1193.000 1.000
43.080 1192.000 1.000
43.100 1228.000 1.000
43.120 1209.000 1.000
43.140 1208.000 1.000
43.160 1216.000 1.000
43.180 1196.000 1.000
43.200 1241.000 1.000
43.220 1271.000 1.000
43.240 1215.000 1.000
43.260 1229.000 1.000
43.280 1246.000 1.000
43.300 1249.000 1.000
43.320 1225.000 1.000
43.340 1203.000 1.000
43.360 1193.000 1.000
43.380 1183.000 1.000
43.400 1193.000 1.000
43.420 1175.000 1.000
43.440 1160.000 1.000
43.460 1127.000 1.000
43.480 1092.000 1.000
43.500 1096.000 1.000
43.520 1085.000 1.000
43.540 1128.000 1.000
43.560 1148.000 1.000
43.580 1149.000 1.000
43.600 1120.000 1.000
43.620 1064.000 1.000
43.640 1063.000 1.000
43.660 1081.000 1.000
43.680 1106.000 1.000
43.700 1091.000 1.000
43.720 1051.000 1.000
43.740 1029.000 1.000
43.760 1010.000 1.000
43.780 1037.000 1.000
43.800 1089.000 1.000
43.820 1085.000 1.000
43.840 1046.000 1.000
43.860 1056.000 1.000
43.880 1068.000 1.000
43.900 1071.000 1.000
43.920 1012.000 1.000
43.940 1022.000 1.000
43.960 1021.000 1.000
43.980 1032.000 1.000
44.000 1033.000 1.000
44.020 998.000 1.000
44.040 952.000 1.000
44.060 956.000 1.000
44.080 969.000 1.000
44.100 991.000 1.000
44.120 1014.000 1.000
44.140 981.000 1.000
44.160 955.000 1.000
44.180 988.000 1.000
44.200 1023.000 1.000
44.220 984.000 1.000
44.240 979.000 1.000
44.260 1015.000 1.000
44.280 1013.000 1.000
44.300 1009.000 1.000
44.320 990.000 1.000
44.340 974.000 1.000
44.360 951.000 1.000
44.380 1001.000 1.000
44.400 1064.000 1.000
44.420 1028.000 1.000
44.440 1020.000 1.000
44.460 1045.000 1.000
44.480 1066.000 1.000
44.500 1055.000 1.000
44.520 1053.000 1.000
44.540 1109.000 1.000
44.560 1146.000 1.000
44.580 1153.000 1.000
44.600 1184.000 1.000
44.620 1207.000 1.000
44.640 1176.000 1.000
44.660 1203.000 1.000
44.680 1207.000 1.000
44.700 1197.000 1.000
44.720 1238.000 1.000
44.740 1265.000 1.000
44.760 1293.000 1.000
44.780 1282.000 1.000
44.800 1279.000 1.000
44.820 1312.000 1.000
44.840 1309.000 1.000
44.860 1272.000 1.000
44.880 1313.000 1.000
44.900 1363.000 1.000
44.920 1373.000 1.000
44.940 1397.000 1.000
44.960 1495.000 1.000
44.980 1539.000 1.000
45.000 1518.000 1.000
45.020 1547.000 1.000
45.040 1548.000 1.000
45.060 1575.000 1.000
45.080 1561.000 1.000
45.100 1500.000 1.000
45.120 1459.000 1.000
45.140 1464.000 1.000
45.160 1432.000 1.000
45.180 1415.000 1.000
45.200 1366.000 1.000
45.220 1313.000 1.000
45.240 1241.000 1.000
45.260 1187.000 1.000
45.280 1187.000 1.000
45.300 1186.000 1.000
45.320 1184.000 1.000
45.340 1135.000 1.000
45.360 1132.000 1.000
45.380 1127.000 1.000
45.400 1104.000 1.000
45.420 1142.000 1.000
45.440 1158.000 1.000
45.460 1143.000 1.000
45.480 1147.000 1.000
45.500 1150.000 1.000
45.520 1163.000 1.000
45.540 1158.000 1.000
45.560 1149.000 1.000
45.580 1169.000 1.000
45.600 1156.000 1.000
45.620 1191.000 1.000
45.640 1199.000 1.000
45.660 1153.000 1.000
45.680 1156.000 1.000
45.700 1130.000 1.000
45.720 1129.000 1.000
45.740 1128.000 1.000
45.760 1147.000 1.000
45.780 1157.000 1.000
45.800 1106.000 1.000
45.820 1084.000 1.000
45.840 1067.000 1.000
45.860 1030.000 1.000
45.880 1001.000 1.000
45.900 1038.000 1.000
45.920 1024.000 1.000
45.940 991.000 1.000
45.960 1004.000 1.000
45.980 1001.000 1.000
46.000 997.000 1.000
46.020 987.000 1.000
46.040 979.000 1.000
46.060 948.000 1.000
46.080 948.000 1.000
46.100 984.000 1.000
46.120 1040.000 1.000
46.140 1049.000 1.000
46.160 1036.000 1.000
46.180 1038.000 1.000
46.200 1052.000 1.000
46.220 1005.000 1.000
46.240 980.000 1.000
46.260 992.000 1.000
46.280 977.000 1.000
46.300 998.000 1.000
46.320 992.000 1.000
46.340 978.000 1.000
46.360 976.000 1.000
46.380 982.000 1.000
46.400 983.000 1.000
46.420 956.000 1.000
46.440 932.000 1.000
46.460 939.000 1.000
46.480 989.000 1.000
46.500 976.000 1.000
46.520 963.000 1.000
46.540 976.000 1.000
46.560 989.000 1.000
46.580 971.000 1.000
46.600 963.000 1.000
46.620 970.000 1.000
46.640 983.000 1.000
46.660 996.000 1.000
46.680 1015.000 1.000
46.700 1006.000 1.000
46.720 1038.000 1.000
46.740 1087.000 1.000
46.760 1046.000 1.000
46.780 1060.000 1.000
46.800 1064.000 1.000
46.820 1029.000 1.000
46.840 1019.000 1.000
46.860 1036.000 1.000
46.880 1086.000 1.000
46.900 1113.000 1.000
46.920 1097.000 1.000
46.940 1077.000 1.000
46.960 1097.000 1.000
46.980 1113.000 1.000
47.000 1105.000 1.000
47.020 1132.000 1.000
47.040 1148.000 1.000
47.060 1158.000 1.000
47.080 1200.000 1.000
47.100 1206.000 1.000
47.120 1199.000 1.000
47.140 1196.000 1.000
47.160 1218.000 1.000
47.180 1220.000 1.000
47.200 1215.000 1.000
47.220 1229.000 1.000
47.240 1244.000 1.000
47.260 1245.000 1.000
47.280 1250.000 1.000
47.300 1258.000 1.000
47.320 1243.000 1.000
47.340 1258.000 1.000
47.360 1287.000 1.000
47.380 1234.000 1.000
47.400 1202.000 1.000
47.420 1241.000 1.000
47.440 1236.000 1.000
47.460 1212.000 1.000
47.480 1202.000 1.000
47.500 1208.000 1.000
47.520 1232.000 1.000
47.540 1234.000 1.000
47.560 1228.000 1.000
47.580 1227.000 1.000
47.600 1260.000 1.000
47.620 1266.000 1.000
47.640 1232.000 1.000
47.660 1141.000 1.000
47.680 1152.000 1.000
47.700 1203.000 1.000
47.720 1180.000 1.000
47.740 1151.000 1.000
47.760 1143.000 1.000
47.780 1156.000 1.000
47.800 1121.000 1.000
47.820 1068.000 1.000
47.840 1074.000 1.000
47.860 1095.000 1.000
47.880 1090.000 1.000
47.900 1096.000 1.000
47.920 1070.000 1.000
47.940 1068.000 1.000
47.960 1077.000 1.000
47.980 1044.000 1.000
48.000 1056.000 1.000
48.020 1093.000 1.000
48.040 1094.000 1.000
48.060 1114.000 1.000
48.080 1129.000 1.000
48.100 1130.000 1.000
48.120 1164.000 1.000
48.140 1170.000 1.000
48.160 1178.000 1.000
48.180 1191.000 1.000
48.200 1202.000 1.000
48.220 1270.000 1.000
48.240 1302.000 1.000
48.260 1288.000 1.000
48.280 1332.000 1.000
48.300 1374.000 1.000
48.320 1361.000 1.000
48.340 1343.000 1.000
48.360 1323.000 1.000
48.380 1343.000 1.000
48.400 1348.000 1.000
48.420 1327.000 1.000
48.440 1315.000 1.000
48.460 1344.000 1.000
48.480 1348.000 1.000
48.500 1324.000 1.000
48.520 1361.000 1.000
48.540 1388.000 1.000
48.560 1404.000 1.000
48.580 1456.000 1.000
48.600 1511.000 1.000
48.620 1554.000 1.000
48.640 1594.000 1.000
48.660 1637.000 1.000
48.680 1673.000 1.000
48.700 1648.000 1.000
48.720 1634.000 1.000
48.740 1631.000 1.000
48.760 1613.000 1.000
48.780 1575.000 1.000
48.800 1579.000 1.000
48.820 1569.000 1.000
48.840 1516.000 1.000
48.860 1467.000 1.000
48.880 1470.000 1.000
48.900 1436.000 1.000
48.920 1423.000 1.000
48.940 1430.000 1.000
48.960 1464.000 1.000
48.980 1540.000 1.000
49.000 1548.000 1.000
49.020 1537.000 1.000
49.040 1561.000 1.000
49.060 1595.000 1.000
49.080 1641.000 1.000
49.100 1663.000 1.000
49.120 1644.000 1.000
49.140 1628.000 1.000
49.160 1653.000 1.000
49.180 1647.000 1.000
49.200 1620.000 1.000
49.220 1587.000 1.000
49.240 1556.000 1.000
49.260 1549.000 1.000
49.280 1503.000 1.000
49.300 1484.000 1.000
49.320 1491.000 1.000
49.340 1440.000 1.000
49.360 1394.000 1.000
49.380 1371.000 1.000
49.400 1372.000 1.000
49.420 1355.000 1.000
49.440 1309.000 1.000
49.460 1323.000 1.000
49.480 1297.000 1.000
49.500 1268.000 1.000
49.520 1247.000 1.000
49.540 1229.000 1.000
49.560 1241.000 1.000
49.580 1243.000 1.000
49.600 1215.000 1.000
49.620 1226.000 1.000
49.640 1231.000 1.000
49.660 1194.000 1.000
49.680 1180.000 1.000
49.700 1183.000 1.000
49.720 1177.000 1.000
49.740 1187.000 1.000
49.760 1166.000 1.000
49.780 1146.000 1.000
49.800 1132.000 1.000
49.820 1127.000 1.000
49.840 1140.000 1.000
49.860 1127.000 1.000
49.880 1129.000 1.000
49.900 1132.000 1.000
49.920 1130.000 1.000
49.940 1146.000 1.000
49.960 1134.000 1.000
49.980 1127.000 1.000
50.000 1123.000 1.000
50.020 1131.000 1.000
50.040 1116.000 1.000
50.060 1141.000 1.000
50.080 1189.000 1.000
50.100 1188.000 1.000
50.120 1133.000 1.000
50.140 1127.000 1.000
50.160 1130.000 1.000
50.180 1119.000 1.000
50.200 1147.000 1.000
50.220 1141.000 1.000
50.240 1149.000 1.000
50.260 1156.000 1.000
50.280 1158.000 1.000
50.300 1171.000 1.000
50.320 1186.000 1.000
50.340 1194.000 1.000
50.360 1166.000 1.000
50.380 1168.000 1.000
50.400 1199.000 1.000
50.420 1188.000 1.000
50.440 1188.000 1.000
50.460 1192.000 1.000
50.480 1181.000 1.000
50.500 1173.000 1.000
50.520 1146.000 1.000
50.540 1136.000 1.000
50.560 1160.000 1.000
50.580 1164.000 1.000
50.600 1174.000 1.000
50.620 1184.000 1.000
50.640 1160.000 1.000
50.660 1183.000 1.000
50.680 1175.000 1.000
50.700 1160.000 1.000
50.720 1144.000 1.000
50.740 1173.000 1.000
50.760 1156.000 1.000
50.780 1121.000 1.000
50.800 1125.000 1.000
50.820 1126.000 1.000
50.840 1123.000 1.000
50.860 1098.000 1.000
50.880 1084.000 1.000
50.900 1105.000 1.000
50.920 1094.000 1.000
50.940 1098.000 1.000
50.960 1100.000 1.000
50.980 1088.000 1.000
51.000 1091.000 1.000
51.020 1091.000 1.000
51.040 1099.000 1.000
51.060 1119.000 1.000
51.080 1103.000 1.000
51.100 1087.000 1.000
51.120 1076.000 1.000
51.140 1093.000 1.000
51.160 1098.000 1.000
51.180 1094.000 1.000
51.200 1094.000 1.000
51.220 1107.000 1.000
51.240 1138.000 1.000
51.260 1119.000 1.000
51.280 1135.000 1.000
51.300 1146.000 1.000
51.320 1122.000 1.000
51.340 1126.000 1.000
51.360 1142.000 1.000
51.380 1119.000 1.000
51.400 1078.000 1.000
51.420 1075.000 1.000
51.440 1101.000 1.000
51.460 1111.000 1.000
51.480 1067.000 1.000
51.500 1078.000 1.000
51.520 1096.000 1.000
51.540 1090.000 1.000
51.560 1107.000 1.000
51.580 1111.000 1.000
51.600 1128.000 1.000
51.620 1162.000 1.000
51.640 1164.000 1.000
51.660 1179.000 1.000
51.680 1209.000 1.000
51.700 1206.000 1.000
51.720 1200.000 1.000
51.740 1250.000 1.000
51.760 1268.000 1.000
51.780 1288.000 1.000
51.800 1311.000 1.000
51.820 1298.000 1.000
51.840 1294.000 1.000
51.860 1300.000 1.000
51.880 1305.000 1.000
51.900 1312.000 1.000
51.920 1310.000 1.000
51.940 1332.000 1.000
51.960 1337.000 1.000
51.980 1358.000 1.000
52.000 1361.000 1.000
52.020 1343.000 1.000
52.040 1328.000 1.000
52.060 1298.000 1.000
52.080 1298.000 1.000
52.100 1326.000 1.000
52.120 1354.000 1.000
52.140 1335.000 1.000
52.160 1354.000 1.000
52.180 1351.000 1.000
52.200 1315.000 1.000
52.220 1299.000 1.000
52.240 1307.000 1.000
52.260 1322.000 1.000
52.280 1329.000 1.000
52.300 1368.000 1.000
52.320 1390.000 1.000
52.340 1386.000 1.000
52.360 1374.000 1.000
52.380 1376.000 1.000
52.400 1345.000 1.000
52.420 1319.000 1.000
52.440 1363.000 1.000
52.460 1385.000 1.000
52.480 1417.000 1.000
52.500 1373.000 1.000
52.520 1296.000 1.000
52.540 1265.000 1.000
52.560 1263.000 1.000
52.580 1295.000 1.000
52.600 1325.000 1.000
52.620 1356.000 1.000
52.640 1347.000 1.000
52.660 1289.000 1.000
52.680 1288.000 1.000
52.700 1305.000 1.000
52.720 1319.000 1.000
52.740 1282.000 1.000
52.760 1287.000 1.000
52.780 1330.000 1.000
52.800 1354.000 1.000
52.820 1398.000 1.000
52.840 1382.000 1.000
52.860 1360.000 1.000
52.880 1414.000 1.000
52.900 1464.000 1.000
52.920 1450.000 1.000
52.940 1475.000 1.000
52.960 1504.000 1.000
52.980 1501.000 1.000
53.000 1546.000 1.000
53.020 1594.000 1.000
53.040 1648.000 1.000
53.060 1731.000 1.000
53.080 1815.000 1.000
53.100 1870.000 1.000
53.120 1972.000 1.000
53.140 2116.000 1.000
53.160 2199.000 1.000
53.180 2274.000 1.000
53.200 2394.000 1.000
53.220 2526.000 1.000
53.240 2610.000 1.000
53.260 2694.000 1.000
53.280 2846.000 1.000
53.300 2942.000 1.000
53.320 3050.000 1.000
53.340 3164.000 1.000
53.360 3180.000 1.000
53.380 3223.000 1.000
53.400 3242.000 1.000
53.420 3149.000 1.000
53.440 3049.000 1.000
53.460 2919.000 1.000
53.480 2799.000 1.000
53.500 2681.000 1.000
53.520 2523.000 1.000
53.540 2418.000 1.000
53.560 2297.000 1.000
53.580 2112.000 1.000
53.600 1937.000 1.000
53.620 1833.000 1.000
53.640 1709.000 1.000
53.660 1611.000 1.000
53.680 1542.000 1.000
53.700 1463.000 1.000
53.720 1447.000 1.000
53.740 1408.000 1.000
53.760 1336.000 1.000
53.780 1269.000 1.000
53.800 1221.000 1.000
53.820 1213.000 1.000
53.840 1222.000 1.000
53.860 1215.000 1.000
53.880 1164.000 1.000
53.900 1153.000 1.000
53.920 1177.000 1.000
53.940 1165.000 1.000
53.960 1140.000 1.000
53.980 1137.000 1.000
54.000 1130.000 1.000
54.020 1104.000 1.000
54.040 1105.000 1.000
54.060 1110.000 1.000
54.080 1072.000 1.000
54.100 1059.000 1.000
54.120 1085.000 1.000
54.140 1065.000 1.000
54.160 1035.000 1.000
54.180 1046.000 1.000
54.200 1058.000 1.000
54.220 1048.000 1.000
54.240 1048.000 1.000
54.260 1040.000 1.000
54.280 999.000 1.000
54.300 986.000 1.000
54.320 984.000 1.000
54.340 995.000 1.000
54.360 999.000 1.000
54.380 1003.000 1.000
54.400 989.000 1.000
54.420 968.000 1.000
54.440 1005.000 1.000
54.460 1023.000 1.000
54.480 1019.000 1.000
54.500 1003.000 1.000
54.520 1011.000 1.000
54.540 1047.000 1.000
54.560 1041.000 1.000
54.580 1052.000 1.000
54.600 1045.000 1.000
54.620 1032.000 1.000
54.640 1057.000 1.000
54.660 1035.000 1.000
54.680 1026.000 1.000
54.700 1060.000 1.000
54.720 1084.000 1.000
54.740 1113.000 1.000
54.760 1103.000 1.000
54.780 1105.000 1.000
54.800 1136.000 1.000
54.820 1152.000 1.000
54.840 1176.000 1.000
54.860 1198.000 1.000
54.880 1223.000 1.000
54.900 1193.000 1.000
54.920 1211.000 1.000
54.940 1262.000 1.000
54.960 1284.000 1.000
54.980 1278.000 1.000
55.000 1300.000 1.000
55.020 1366.000 1.000
55.040 1398.000 1.000
55.060 1414.000 1.000
55.080 1428.000 1.000
55.100 1443.000 1.000
55.120 1494.000 1.000
55.140 1504.000 1.000
55.160 1531.000 1.000
55.180 1576.000 1.000
55.200 1584.000 1.000
55.220 1579.000 1.000
55.240 1525.000 1.000
55.260 1501.000 1.000
55.280 1535.000 1.000
55.300 1542.000 1.000
55.320 1528.000 1.000
55.340 1537.000 1.000
55.360 1473.000 1.000
55.380 1449.000 1.000
55.400 1434.000 1.000
55.420 1427.000 1.000
55.440 1408.000 1.000
55.460 1350.000 1.000
55.480 1295.000 1.000
55.500 1243.000 1.000
55.520 1238.000 1.000
55.540 1225.000 1.000
55.560 1200.000 1.000
55.580 1190.000 1.000
55.600 1198.000 1.000
55.620 1200.000 1.000
55.640 1200.000 1.000
55.660 1208.000 1.000
55.680 1203.000 1.000
55.700 1177.000 1.000
55.720 1165.000 1.000
55.740 1180.000 1.000
55.760 1190.000 1.000
55.780 1178.000 1.000
55.800 1189.000 1.000
55.820 1231.000 1.000
55.840 1206.000 1.000
55.860 1218.000 1.000
55.880 1249.000 1.000
55.900 1285.000 1.000
55.920 1320.000 1.000
55.940 1328.000 1.000
55.960 1328.000 1.000
55.980 1326.000 1.000
56.000 1317.000 1.000
56.020 1320.000 1.000
56.040 1379.000 1.000
56.060 1410.000 1.000
56.080 1421.000 1.000
56.100 1416.000 1.000
56.120 1408.000 1.000
56.140 1427.000 1.000
56.160 1449.000 1.000
56.180 1424.000 1.000
56.200 1405.000 1.000
56.220 1431.000 1.000
56.240 1405.000 1.000
56.260 1413.000 1.000
56.280 1438.000 1.000
56.300 1391.000 1.000
56.320 1322.000 1.000
56.340 1325.000 1.000
56.360 1366.000 1.000
56.380 1362.000 1.000
56.400 1309.000 1.000
56.420 1293.000 1.000
56.440 1293.000 1.000
56.460 1296.000 1.000
56.480 1313.000 1.000
56.500 1338.000 1.000
56.520 1310.000 1.000
56.540 1293.000 1.000
56.560 1304.000 1.000
56.580 1337.000 1.000
56.600 1352.000 1.000
56.620 1297.000 1.000
56.640 1319.000 1.000
56.660 1356.000 1.000
56.680 1336.000 1.000
56.700 1325.000 1.000
56.720 1301.000 1.000
56.740 1308.000 1.000
56.760 1332.000 1.000
56.780 1304.000 1.000
56.800 1274.000 1.000
56.820 1273.000 1.000
56.840 1244.000 1.000
56.860 1208.000 1.000
56.880 1162.000 1.000
56.900 1140.000 1.000
56.920 1139.000 1.000
56.940 1113.000 1.000
56.960 1072.000 1.000
56.980 1091.000 1.000
57.000 1097.000 1.000
57.020 1066.000 1.000
57.040 1043.000 1.000
57.060 1060.000 1.000
57.080 1060.000 1.000
57.100 1055.000 1.000
57.120 1078.000 1.000
57.140 1065.000 1.000
57.160 1050.000 1.000
57.180 1063.000 1.000
57.200 1030.000 1.000
57.220 1014.000 1.000
57.240 1044.000 1.000
57.260 1026.000 1.000
57.280 1003.000 1.000
57.300 1000.000 1.000
57.320 993.000 1.000
57.340 999.000 1.000
57.360 992.000 1.000
57.380 986.000 1.000
57.400 991.000 1.000
57.420 1002.000 1.000
57.440 1003.000 1.000
57.460 986.000 1.000
57.480 988.000 1.000
57.500 1009.000 1.000
57.520 993.000 1.000
57.540 971.000 1.000
57.560 949.000 1.000
57.580 941.000 1.000
57.600 957.000 1.000
57.620 943.000 1.000
57.640 924.000 1.000
57.660 947.000 1.000
57.680 946.000 1.000
57.700 937.000 1.000
57.720 929.000 1.000
57.740 913.000 1.000
57.760 958.000 1.000
57.780 979.000 1.000
57.800 970.000 1.000
57.820 955.000 1.000
57.840 958.000 1.000
57.860 951.000 1.000
57.880 974.000 1.000
57.900 982.000 1.000
57.920 989.000 1.000
57.940 1003.000 1.000
57.960 1005.000 1.000
57.980 1053.000 1.000
58.000 1052.000 1.000
58.020 1019.000 1.000
58.040 1043.000 1.000
58.060 1042.000 1.000
58.080 1053.000 1.000
58.100 1099.000 1.000
58.120 1123.000 1.000
58.140 1114.000 1.000
58.160 1161.000 1.000
58.180 1203.000 1.000
58.200 1182.000 1.000
58.220 1183.000 1.000
58.240 1240.000 1.000
58.260 1240.000 1.000
58.280 1238.000 1.000
58.300 1239.000 1.000
58.320 1217.000 1.000
58.340 1229.000 1.000
58.360 1251.000 1.000
58.380 1247.000 1.000
58.400 1250.000 1.000
58.420 1231.000 1.000
58.440 1215.000 1.000
58.460 1215.000 1.000
58.480 1166.000 1.000
58.500 1138.000 1.000
58.520 1118.000 1.000
58.540 1094.000 1.000
58.560 1091.000 1.000
58.580 1100.000 1.000
58.600 1137.000 1.000
58.620 1143.000 1.000
58.640 1123.000 1.000
58.660 1081.000 1.000
58.680 1057.000 1.000
58.700 1059.000 1.000
58.720 1080.000 1.000
58.740 1073.000 1.000
58.760 1067.000 1.000
58.780 1064.000 1.000
58.800 1070.000 1.000
58.820 1069.000 1.000
58.840 1063.000 1.000
58.860 1064.000 1.000
58.880 1105.000 1.000
58.900 1103.000 1.000
58.920 1071.000 1.000
58.940 1084.000 1.000
58.960 1094.000 1.000
58.980 1100.000 1.000
59.000 1107.000 1.000
59.020 1105.000 1.000
59.040 1088.000 1.000
59.060 1084.000 1.000
59.080 1112.000 1.000
59.100 1130.000 1.000
59.120 1101.000 1.000
59.140 1098.000 1.000
59.160 1112.000 1.000
59.180 1095.000 1.000
59.200 1065.000 1.000
59.220 1065.000 1.000
59.240 1085.000 1.000
59.260 1079.000 1.000
59.280 1079.000 1.000
59.300 1071.000 1.000
59.320 1074.000 1.000
59.340 1088.000 1.000
59.360 1082.000 1.000
59.380 1050.000 1.000
59.400 1033.000 1.000
59.420 1066.000 1.000
59.440 1068.000 1.000
59.460 1069.000 1.000
59.480 1080.000 1.000
59.500 1087.000 1.000
59.520 1097.000 1.000
59.540 1060.000 1.000
59.560 1025.000 1.000
59.580 1051.000 1.000
59.600 1005.000 1.000
59.620 987.000 1.000
59.640 1022.000 1.000
59.660 1035.000 1.000
59.680 993.000 1.000
59.700 996.000 1.000
59.720 1014.000 1.000
59.740 1036.000 1.000
59.760 1066.000 1.000
59.780 1050.000 1.000
59.800 998.000 1.000
59.820 996.000 1.000
59.840 1008.000 1.000
59.860 1006.000 1.000
59.880 1000.000 1.000
59.900 988.000 1.000
59.920 977.000 1.000
59.940 981.000 1.000
59.960 972.000 1.000
59.980 1026.000 1.000
60.000 1025.000 1.000
60.020 981.000 1.000
60.040 1011.000 1.000
60.060 1035.000 1.000
60.080 1015.000 1.000
60.100 990.000 1.000
60.120 1013.000 1.000
60.140 1011.000 1.000
60.160 1002.000 1.000
60.180 1028.000 1.000
60.200 1049.000 1.000
60.220 1045.000 1.000
60.240 1056.000 1.000
60.260 1057.000 1.000
60.280 1039.000 1.000
60.300 1042.000 1.000
60.320 1019.000 1.000
60.340 1024.000 1.000
60.360 1062.000 1.000
60.380 1061.000 1.000
60.400 1053.000 1.000
60.420 1072.000 1.000
60.440 1074.000 1.000
60.460 1075.000 1.000
60.480 1124.000 1.000
60.500 1108.000 1.000
60.520 1126.000 1.000
60.540 1146.000 1.000
60.560 1167.000 1.000
60.580 1186.000 1.000
60.600 1151.000 1.000
60.620 1194.000 1.000
60.640 1206.000 1.000
60.660 1233.000 1.000
60.680 1289.000 1.000
60.700 1318.000 1.000
60.720 1344.000 1.000
60.740 1380.000 1.000
60.760 1357.000 1.000
60.780 1356.000 1.000
60.800 1373.000 1.000
60.820 1374.000 1.000
60.840 1417.000 1.000
60.860 1388.000 1.000
60.880 1382.000 1.000
60.900 1380.000 1.000
60.920 1381.000 1.000
60.940 1388.000 1.000
60.960 1387.000 1.000
60.980 1315.000 1.000
61.000 1322.000 1.000
61.020 1308.000 1.000
61.040 1338.000 1.000
61.060 1297.000 1.000
61.080 1295.000 1.000
61.100 1300.000 1.000
61.120 1263.000 1.000
61.140 1254.000 1.000
61.160 1308.000 1.000
61.180 1281.000 1.000
61.200 1237.000 1.000
61.220 1241.000 1.000
61.240 1237.000 1.000
61.260 1230.000 1.000
61.280 1261.000 1.000
61.300 1282.000 1.000
61.320 1313.000 1.000
61.340 1318.000 1.000
61.360 1424.000 1.000
61.380 1490.000 1.000
61.400 1565.000 1.000
61.420 1641.000 1.000
61.440 1692.000 1.000
61.460 1687.000 1.000
61.480 1630.000 1.000
61.500 1592.000 1.000
61.520 1545.000 1.000
61.540 1548.000 1.000
61.560 1567.000 1.000
61.580 1571.000 1.000
61.600 1593.000 1.000
61.620 1563.000 1.000
61.640 1505.000 1.000
61.660 1458.000 1.000
61.680 1464.000 1.000
61.700 1417.000 1.000
61.720 1440.000 1.000
61.740 1372.000 1.000
61.760 1317.000 1.000
61.780 1346.000 1.000
61.800 1289.000 1.000
61.820 1272.000 1.000
61.840 1279.000 1.000
61.860 1243.000 1.000
61.880 1245.000 1.000
61.900 1236.000 1.000
61.920 1271.000 1.000
61.940 1319.000 1.000
61.960 1299.000 1.000
61.980 1269.000 1.000
62.000 1262.000 1.000
62.020 1306.000 1.000
62.040 1327.000 1.000
62.060 1303.000 1.000
62.080 1269.000 1.000
62.100 1270.000 1.000
62.120 1308.000 1.000
62.140 1314.000 1.000
62.160 1322.000 1.000
62.180 1343.000 1.000
62.200 1350.000 1.000
62.220 1349.000 1.000
62.240 1378.000 1.000
62.260 1367.000 1.000
62.280 1390.000 1.000
62.300 1444.000 1.000
62.320 1492.000 1.000
62.340 1480.000 1.000
62.360 1505.000 1.000
62.380 1545.000 1.000
62.400 1609.000 1.000
62.420 1619.000 1.000
62.440 1598.000 1.000
62.460 1625.000 1.000
62.480 1617.000 1.000
62.500 1650.000 1.000
62.520 1707.000 1.000
62.540 1768.000 1.000
62.560 1753.000 1.000
62.580 1803.000 1.000
62.600 1852.000 1.000
62.620 1871.000 1.000
62.640 1825.000 1.000
62.660 1864.000 1.000
62.680 1841.000 1.000
62.700 1813.000 1.000
62.720 1801.000 1.000
62.740 1813.000 1.000
62.760 1763.000 1.000
62.780 1716.000 1.000
62.800 1701.000 1.000
62.820 1681.000 1.000
62.840 1612.000 1.000
62.860 1582.000 1.000
62.880 1593.000 1.000
62.900 1565.000 1.000
62.920 1494.000 1.000
62.940 1448.000 1.000
62.960 1452.000 1.000
62.980 1446.000 1.000
63.000 1464.000 1.000
63.020 1444.000 1.000
63.040 1388.000 1.000
63.060 1347.000 1.000
63.080 1355.000 1.000
63.100 1381.000 1.000
63.120 1397.000 1.000
63.140 1347.000 1.000
63.160 1375.000 1.000
63.180 1358.000 1.000
63.200 1348.000 1.000
63.220 1370.000 1.000
63.240 1403.000 1.000
63.260 1393.000 1.000
63.280 1357.000 1.000
63.300 1368.000 1.000
63.320 1385.000 1.000
63.340 1383.000 1.000
63.360 1365.000 1.000
63.380 1349.000 1.000
63.400 1331.000 1.000
63.420 1310.000 1.000
63.440 1317.000 1.000
63.460 1277.000 1.000
63.480 1243.000 1.000
63.500 1291.000 1.000
63.520 1338.000 1.000
63.540 1279.000 1.000
63.560 1240.000 1.000
63.580 1284.000 1.000
63.600 1260.000 1.000
63.620 1272.000 1.000
63.640 1275.000 1.000
63.660 1274.000 1.000
63.680 1216.000 1.000
63.700 1280.000 1.000
63.720 1260.000 1.000
63.740 1315.000 1.000
63.760 1348.000 1.000
63.780 1350.000 1.000
63.800 1366.000 1.000
63.820 1392.000 1.000
63.840 1433.000 1.000
63.860 1467.000 1.000
63.880 1574.000 1.000
63.900 1532.000 1.000
63.920 1517.000 1.000
63.940 1546.000 1.000
63.960 1546.000 1.000
63.980 1556.000 1.000
64.000 1592.000 1.000
64.020 1575.000 1.000
64.040 1548.000 1.000
64.060 1524.000 1.000
64.080 1500.000 1.000
64.100 1481.000 1.000
64.120 1416.000 1.000
64.140 1501.000 1.000
64.160 1466.000 1.000
64.180 1466.000 1.000
64.200 1464.000 1.000
64.220 1425.000 1.000
64.240 1436.000 1.000
64.260 1350.000 1.000
64.280 1326.000 1.000
64.300 1326.000 1.000
64.320 1284.000 1.000
64.340 1293.000 1.000
64.360 1306.000 1.000
64.380 1289.000 1.000
64.400 1262.000 1.000
64.420 1286.000 1.000
64.440 1220.000 1.000
64.460 1211.000 1.000
64.480 1222.000 1.000
64.500 1195.000 1.000
64.520 1182.000 1.000
64.540 1163.000 1.000
64.560 1174.000 1.000
64.580 1171.000 1.000
64.600 1186.000 1.000
64.620 1136.000 1.000
64.640 1199.000 1.000
64.660 1170.000 1.000
64.680 1165.000 1.000
64.700 1170.000 1.000
64.720 1207.000 1.000
64.740 1175.000 1.000
64.760 1133.000 1.000
64.780 1119.000 1.000
64.800 1153.000 1.000
64.820 1170.000 1.000
64.840 1173.000 1.000
64.860 1205.000 1.000
64.880 1171.000 1.000
64.900 1188.000 1.000
64.920 1205.000 1.000
64.940 1225.000 1.000
64.960 1258.000 1.000
64.980 1272.000 1.000
65.000 1241.000 1.000
65.020 1293.000 1.000
65.040 1319.000 1.000
65.060 1347.000 1.000
65.080 1407.000 1.000
65.100 1458.000 1.000
65.120 1512.000 1.000
65.140 1479.000 1.000
65.160 1453.000 1.000
65.180 1445.000 1.000
65.200 1458.000 1.000
65.220 1463.000 1.000
65.240 1411.000 1.000
65.260 1415.000 1.000
65.280 1456.000 1.000
65.300 1458.000 1.000
65.320 1482.000 1.000
65.340 1487.000 1.000
65.360 1421.000 1.000
65.380 1376.000 1.000
65.400 1407.000 1.000
65.420 1389.000 1.000
65.440 1418.000 1.000
65.460 1412.000 1.000
65.480 1413.000 1.000
65.500 1441.000 1.000
65.520 1528.000 1.000
65.540 1516.000 1.000
65.560 1545.000 1.000
65.580 1543.000 1.000
65.600 1632.000 1.000
65.620 1685.000 1.000
65.640 1748.000 1.000
65.660 1738.000 1.000
65.680 1797.000 1.000
65.700 1866.000 1.000
65.720 1867.000 1.000
65.740 1899.000 1.000
65.760 1892.000 1.000
65.780 1874.000 1.000
65.800 1857.000 1.000
65.820 1861.000 1.000
65.840 1864.000 1.000
65.860 1870.000 1.000
65.880 1907.000 1.000
65.900 1888.000 1.000
65.920 1818.000 1.000
65.940 1878.000 1.000
65.960 1915.000 1.000
65.980 1851.000 1.000
66.000 1853.000 1.000
66.020 1881.000 1.000
66.040 1915.000 1.000
66.060 2019.000 1.000
66.080 2019.000 1.000
66.100 2107.000 1.000
66.120 2129.000 1.000
66.140 2172.000 1.000
66.160 2233.000 1.000
66.180 2216.000 1.000
66.200 2164.000 1.000
66.220 2180.000 1.000
66.240 2147.000 1.000
66.260 2140.000 1.000
66.280 2170.000 1.000
66.300 2090.000 1.000
66.320 2096.000 1.000
66.340 2026.000 1.000
66.360 2027.000 1.000
66.380 1971.000 1.000
66.400 1969.000 1.000
66.420 1861.000 1.000
66.440 1809.000 1.000
66.460 1752.000 1.000
66.480 1720.000 1.000
66.500 1711.000 1.000
66.520 1698.000 1.000
66.540 1643.000 1.000
66.560 1593.000 1.000
66.580 1544.000 1.000
66.600 1541.000 1.000
66.620 1536.000 1.000
66.640 1491.000 1.000
66.660 1470.000 1.000
66.680 1387.000 1.000
66.700 1422.000 1.000
66.720 1403.000 1.000
66.740 1336.000 1.000
66.760 1298.000 1.000
66.780 1311.000 1.000
66.800 1301.000 1.000
66.820 1300.000 1.000
66.840 1296.000 1.000
66.860 1269.000 1.000
66.880 1272.000 1.000
66.900 1297.000 1.000
66.920 1265.000 1.000
66.940 1220.000 1.000
66.960 1294.000 1.000
66.980 1229.000 1.000
67.000 1201.000 1.000
67.020 1253.000 1.000
67.040 1232.000 1.000
67.060 1247.000 1.000
67.080 1277.000 1.000
67.100 1267.000 1.000
67.120 1266.000 1.000
67.140 1253.000 1.000
67.160 1240.000 1.000
67.180 1254.000 1.000
67.200 1314.000 1.000
67.220 1301.000 1.000
67.240 1297.000 1.000
67.260 1292.000 1.000
67.280 1268.000 1.000
67.300 1221.000 1.000
67.320 1216.000 1.000
67.340 1272.000 1.000
67.360 1252.000 1.000
67.380 1300.000 1.000
67.400 1269.000 1.000
67.420 1242.000 1.000
67.440 1224.000 1.000
67.460 1237.000 1.000
67.480 1266.000 1.000
67.500 1312.000 1.000
67.520 1256.000 1.000
67.540 1274.000 1.000
67.560 1308.000 1.000
67.580 1310.000 1.000
67.600 1322.000 1.000
67.620 1313.000 1.000
67.640 1285.000 1.000
67.660 1308.000 1.000
67.680 1299.000 1.000
67.700 1363.000 1.000
67.720 1436.000 1.000
67.740 1427.000 1.000
67.760 1462.000 1.000
67.780 1496.000 1.000
67.800 1543.000 1.000
67.820 1578.000 1.000
67.840 1669.000 1.000
67.860 1698.000 1.000
67.880 1726.000 1.000
67.900 1795.000 1.000
67.920 1930.000 1.000
67.940 2018.000 1.000
67.960 2068.000 1.000
67.980 2169.000 1.000
68.000 2299.000 1.000
68.020 2312.000 1.000
68.040 2234.000 1.000
68.060 2128.000 1.000
68.080 2048.000 1.000
68.100 1924.000 1.000
68.120 1839.000 1.000
68.140 1812.000 1.000
68.160 1808.000 1.000
68.180 1797.000 1.000
68.200 1720.000 1.000
68.220 1752.000 1.000
68.240 1641.000 1.000
68.260 1557.000 1.000
68.280 1470.000 1.000
68.300 1429.000 1.000
68.320 1293.000 1.000
68.340 1260.000 1.000
68.360 1159.000 1.000
68.380 1164.000 1.000
68.400 1163.000 1.000
68.420 1140.000 1.000
68.440 1068.000 1.000
68.460 1088.000 1.000
68.480 1047.000 1.000
68.500 1118.000 1.000
68.520 1079.000 1.000
68.540 1040.000 1.000
68.560 1071.000 1.000
68.580 1017.000 1.000
68.600 988.000 1.000
68.620 994.000 1.000
68.640 993.000 1.000
68.660 1008.000 1.000
68.680 1064.000 1.000
68.700 1030.000 1.000
68.720 1004.000 1.000
68.740 1060.000 1.000
68.760 1021.000 1.000
68.780 997.000 1.000
68.800 1038.000 1.000
68.820 1061.000 1.000
68.840 1010.000 1.000
68.860 1003.000 1.000
68.880 963.000 1.000
68.900 1003.000 1.000
68.920 1013.000 1.000
68.940 1004.000 1.000
68.960 1018.000 1.000
68.980 1015.000 1.000
69.000 976.000 1.000
69.020 1015.000 1.000
69.040 1048.000 1.000
69.060 996.000 1.000
69.080 1026.000 1.000
69.100 1011.000 1.000
69.120 1026.000 1.000
69.140 1011.000 1.000
69.160 1025.000 1.000
69.180 1035.000 1.000
69.200 1041.000 1.000
69.220 995.000 1.000
69.240 1042.000 1.000
69.260 1043.000 1.000
69.280 1049.000 1.000
69.300 1002.000 1.000
69.320 1000.000 1.000
69.340 1007.000 1.000
69.360 1014.000 1.000
69.380 983.000 1.000
69.400 997.000 1.000
69.420 1014.000 1.000
69.440 1001.000 1.000
69.460 1027.000 1.000
69.480 1013.000 1.000
69.500 996.000 1.000
69.520 1021.000 1.000
69.540 1001.000 1.000
69.560 1007.000 1.000
69.580 1016.000 1.000
69.600 1010.000 1.000
69.620 1038.000 1.000
69.640 1043.000 1.000
69.660 1025.000 1.000
69.680 989.000 1.000
69.700 1042.000 1.000
69.720 1018.000 1.000
69.740 1015.000 1.000
69.760 1036.000 1.000
69.780 989.000 1.000
69.800 998.000 1.000
69.820 987.000 1.000
69.840 1032.000 1.000
69.860 1045.000 1.000
69.880 1032.000 1.000
69.900 1031.000 1.000
69.920 1001.000 1.000
69.940 1025.000 1.000
69.960 1013.000 1.000
69.980 1039.000 1.000
70.000 1016.000 1.000
70.020 1067.000 1.000
70.040 1038.000 1.000
70.060 1071.000 1.000
70.080 1069.000 1.000
70.100 1052.000 1.000
70.120 1025.000 1.000
70.140 998.000 1.000
70.160 1043.000 1.000
70.180 1038.000 1.000
70.200 1024.000 1.000
70.220 1028.000 1.000
70.240 1050.000 1.000
70.260 1026.000 1.000
70.280 1041.000 1.000
70.300 1019.000 1.000
70.320 1034.000 1.000
70.340 1054.000 1.000
70.360 1000.000 1.000
70.380 1017.000 1.000
70.400 1011.000 1.000
70.420 1006.000 1.000
70.440 1042.000 1.000
70.460 1051.000 1.000
70.480 1038.000 1.000
70.500 991.000 1.000
70.520 986.000 1.000
70.540 990.000 1.000
70.560 1011.000 1.000
70.580 979.000 1.000
70.600 980.000 1.000
70.620 981.000 1.000
70.640 941.000 1.000
70.660 995.000 1.000
70.680 999.000 1.000
70.700 1011.000 1.000
70.720 1004.000 1.000
70.740 980.000 1.000
70.760 976.000 1.000
70.780 992.000 1.000
70.800 966.000 1.000
70.820 954.000 1.000
70.840 957.000 1.000
70.860 960.000 1.000
70.880 973.000 1.000
70.900 971.000 1.000
70.920 986.000 1.000
70.940 1001.000 1.000
70.960 969.000 1.000
70.980 909.000 1.000
71.000 932.000 1.000
71.020 979.000 1.000
71.040 976.000 1.000
71.060 954.000 1.000
71.080 946.000 1.000
71.100 954.000 1.000
71.120 978.000 1.000
71.140 970.000 1.000
71.160 912.000 1.000
71.180 941.000 1.000
71.200 945.000 1.000
71.220 963.000 1.000
71.240 933.000 1.000
71.260 971.000 1.000
71.280 978.000 1.000
71.300 997.000 1.000
71.320 920.000 1.000
71.340 955.000 1.000
71.360 965.000 1.000
71.380 940.000 1.000
71.400 884.000 1.000
71.420 930.000 1.000
71.440 944.000 1.000
71.460 950.000 1.000
71.480 970.000 1.000
71.500 965.000 1.000
71.520 960.000 1.000
71.540 1001.000 1.000
71.560 979.000 1.000
71.580 962.000 1.000
71.600 963.000 1.000
71.620 930.000 1.000
71.640 929.000 1.000
71.660 961.000 1.000
71.680 973.000 1.000
71.700 921.000 1.000
71.720 957.000 1.000
71.740 978.000 1.000
71.760 1012.000 1.000
71.780 948.000 1.000
71.800 943.000 1.000
71.820 958.000 1.000
71.840 985.000 1.000
71.860 991.000 1.000
71.880 924.000 1.000
71.900 952.000 1.000
71.920 956.000 1.000
71.940 938.000 1.000
71.960 932.000 1.000
71.980 932.000 1.000
72.000 976.000 1.000
72.020 929.000 1.000
72.040 987.000 1.000
72.060 967.000 1.000
72.080 1001.000 1.000
72.100 986.000 1.000
72.120 1012.000 1.000
72.140 1041.000 1.000
72.160 1003.000 1.000
72.180 993.000 1.000
72.200 1051.000 1.000
72.220 1043.000 1.000
72.240 1070.000 1.000
72.260 1097.000 1.000
72.280 1076.000 1.000
72.300 1102.000 1.000
72.320 1085.000 1.000
72.340 1090.000 1.000
72.360 1052.000 1.000
72.380 1125.000 1.000
72.400 1103.000 1.000
72.420 1094.000 1.000
72.440 1021.000 1.000
72.460 1099.000 1.000
72.480 1105.000 1.000
72.500 1117.000 1.000
72.520 1108.000 1.000
72.540 1071.000 1.000
72.560 1079.000 1.000
72.580 1067.000 1.000
72.600 1092.000 1.000
72.620 1085.000 1.000
72.640 1117.000 1.000
72.660 1065.000 1.000
72.680 1132.000 1.000
72.700 1181.000 1.000
72.720 1116.000 1.000
72.740 1104.000 1.000
72.760 1086.000 1.000
72.780 1116.000 1.000
72.800 1112.000 1.000
72.820 1093.000 1.000
72.840 1107.000 1.000
72.860 1175.000 1.000
72.880 1103.000 1.000
72.900 1129.000 1.000
72.920 1124.000 1.000
72.940 1131.000 1.000
72.960 1173.000 1.000
72.980 1182.000 1.000
73.000 1141.000 1.000
73.020 1151.000 1.000
73.040 1161.000 1.000
73.060 1134.000 1.000
73.080 1165.000 1.000
73.100 1190.000 1.000
73.120 1163.000 1.000
73.140 1140.000 1.000
73.160 1134.000 1.000
73.180 1155.000 1.000
73.200 1100.000 1.000
73.220 1109.000 1.000
73.240 1115.000 1.000
73.260 1101.000 1.000
73.280 1095.000 1.000
73.300 1125.000 1.000
73.320 1107.000 1.000
73.340 1081.000 1.000
73.360 1087.000 1.000
73.380 1072.000 1.000
73.400 1039.000 1.000
73.420 1014.000 1.000
73.440 1046.000 1.000
73.460 1050.000 1.000
73.480 1083.000 1.000
73.500 1034.000 1.000
73.520 1009.000 1.000
73.540 1007.000 1.000
73.560 997.000 1.000
73.580 982.000 1.000
73.600 1013.000 1.000
73.620 1052.000 1.000
73.640 1047.000 1.000
73.660 958.000 1.000
73.680 998.000 1.000
73.700 1003.000 1.000
73.720 980.000 1.000
73.740 995.000 1.000
73.760 992.000 1.000
73.780 988.000 1.000
73.800 977.000 1.000
73.820 1002.000 1.000
73.840 1052.000 1.000
73.860 1060.000 1.000
73.880 1055.000 1.000
73.900 1028.000 1.000
73.920 1011.000 1.000
73.940 1006.000 1.000
73.960 944.000 1.000
73.980 997.000 1.000
74.000 1043.000 1.000
74.020 1025.000 1.000
74.040 1010.000 1.000
74.060 1029.000 1.000
74.080 1033.000 1.000
74.100 1061.000 1.000
74.120 1046.000 1.000
74.140 1058.000 1.000
74.160 1025.000 1.000
74.180 1048.000 1.000
74.200 1019.000 1.000
74.220 1063.000 1.000
74.240 1056.000 1.000
74.260 1081.000 1.000
74.280 1088.000 1.000
74.300 1065.000 1.000
74.320 1111.000 1.000
74.340 1103.000 1.000
74.360 1051.000 1.000
74.380 1105.000 1.000
74.400 1106.000 1.000
74.420 1105.000 1.000
74.440 1113.000 1.000
74.460 1118.000 1.000
74.480 1152.000 1.000
74.500 1151.000 1.000
74.520 1137.000 1.000
74.540 1112.000 1.000
74.560 1129.000 1.000
74.580 1146.000 1.000
74.600 1204.000 1.000
74.620 1158.000 1.000
74.640 1166.000 1.000
74.660 1193.000 1.000
74.680 1152.000 1.000
74.700 1189.000 1.000
74.720 1163.000 1.000
74.740 1191.000 1.000
74.760 1158.000 1.000
74.780 1206.000 1.000
74.800 1189.000 1.000
74.820 1247.000 1.000
74.840 1238.000 1.000
74.860 1274.000 1.000
74.880 1317.000 1.000
74.900 1291.000 1.000
74.920 1331.000 1.000
74.940 1316.000 1.000
74.960 1294.000 1.000
74.980 1310.000 1.000
75.000 1279.000 1.000
75.020 1265.000 1.000
75.040 1313.000 1.000
75.060 1352.000 1.000
75.080 1388.000 1.000
75.100 1347.000 1.000
75.120 1452.000 1.000
75.140 1455.000 1.000
75.160 1508.000 1.000
75.180 1425.000 1.000
75.200 1363.000 1.000
75.220 1366.000 1.000
75.240 1391.000 1.000
75.260 1285.000 1.000
75.280 1337.000 1.000
75.300 1264.000 1.000
75.320 1277.000 1.000
75.340 1231.000 1.000
75.360 1235.000 1.000
75.380 1252.000 1.000
75.400 1225.000 1.000
75.420 1221.000 1.000
75.440 1176.000 1.000
75.460 1166.000 1.000
75.480 1160.000 1.000
75.500 1114.000 1.000
75.520 1085.000 1.000
75.540 1083.000 1.000
75.560 1108.000 1.000
75.580 1122.000 1.000
75.600 1045.000 1.000
75.620 1022.000 1.000
75.640 1063.000 1.000
75.660 1049.000 1.000
75.680 1062.000 1.000
75.700 1037.000 1.000
75.720 1029.000 1.000
75.740 995.000 1.000
75.760 1046.000 1.000
75.780 1066.000 1.000
75.800 1030.000 1.000
75.820 999.000 1.000
75.840 1003.000 1.000
75.860 1038.000 1.000
75.880 1014.000 1.000
75.900 1011.000 1.000
75.920 1053.000 1.000
75.940 1066.000 1.000
75.960 1042.000 1.000
75.980 994.000 1.000
76.000 961.000 1.000
76.020 977.000 1.000
76.040 984.000 1.000
76.060 995.000 1.000
76.080 967.000 1.000
76.100 1022.000 1.000
76.120 992.000 1.000
76.140 1009.000 1.000
76.160 1006.000 1.000
76.180 953.000 1.000
76.200 1014.000 1.000
76.220 986.000 1.000
76.240 1027.000 1.000
76.260 1065.000 1.000
76.280 1058.000 1.000
76.300 998.000 1.000
76.320 1016.000 1.000
76.340 1019.000 1.000
76.360 1024.000 1.000
76.380 1059.000 1.000
76.400 1008.000 1.000
76.420 1045.000 1.000
76.440 1050.000 1.000
76.460 1055.000 1.000
76.480 1046.000 1.000
76.500 994.000 1.000
76.520 1027.000 1.000
76.540 1041.000 1.000
76.560 994.000 1.000
76.580 1044.000 1.000
76.600 992.000 1.000
76.620 1014.000 1.000
76.640 1003.000 1.000
76.660 1016.000 1.000
76.680 1043.000 1.000
76.700 1031.000 1.000
76.720 1020.000 1.000
76.740 1011.000 1.000
76.760 1015.000 1.000
76.780 1054.000 1.000
76.800 1074.000 1.000
76.820 1050.000 1.000
76.840 1045.000 1.000
76.860 1039.000 1.000
76.880 1040.000 1.000
76.900 1015.000 1.000
76.920 1055.000 1.000
76.940 1064.000 1.000
76.960 1066.000 1.000
76.980 1069.000 1.000
77.000 1043.000 1.000
77.020 1039.000 1.000
77.040 986.000 1.000
77.060 1020.000 1.000
77.080 1012.000 1.000
77.100 1004.000 1.000
77.120 1038.000 1.000
77.140 1070.000 1.000
77.160 1068.000 1.000
77.180 1020.000 1.000
77.200 1024.000 1.000
77.220 983.000 1.000
77.240 1016.000 1.000
77.260 1035.000 1.000
77.280 1043.000 1.000
77.300 1071.000 1.000
77.320 1051.000 1.000
77.340 1022.000 1.000
77.360 977.000 1.000
77.380 997.000 1.000
77.400 1014.000 1.000
77.420 1020.000 1.000
77.440 1026.000 1.000
77.460 1024.000 1.000
77.480 1011.000 1.000
77.500 1055.000 1.000
77.520 1095.000 1.000
77.540 1060.000 1.000
77.560 1064.000 1.000
77.580 1044.000 1.000
77.600 1041.000 1.000
77.620 1078.000 1.000
77.640 1058.000 1.000
77.660 1002.000 1.000
77.680 1023.000 1.000
77.700 1024.000 1.000
77.720 1036.000 1.000
77.740 1054.000 1.000
77.760 1082.000 1.000
77.780 1059.000 1.000
77.800 1081.000 1.000
77.820 1113.000 1.000
77.840 1095.000 1.000
77.860 1067.000 1.000
77.880 1074.000 1.000
77.900 1107.000 1.000
77.920 1073.000 1.000
77.940 1109.000 1.000
77.960 1116.000 1.000
77.980 1077.000 1.000
78.000 1082.000 1.000
78.020 1136.000 1.000
78.040 1149.000 1.000
78.060 1157.000 1.000
78.080 1118.000 1.000
78.100 1134.000 1.000
78.120 1196.000 1.000
78.140 1117.000 1.000
78.160 1122.000 1.000
78.180 1052.000 1.000
78.200 1058.000 1.000
78.220 1102.000 1.000
78.240 1110.000 1.000
78.260 1107.000 1.000
78.280 1118.000 1.000
78.300 1072.000 1.000
78.320 1104.000 1.000
78.340 1060.000 1.000
78.360 1063.000 1.000
78.380 1046.000 1.000
78.400 1058.000 1.000
78.420 1038.000 1.000
78.440 1033.000 1.000
78.460 1001.000 1.000
78.480 1063.000 1.000
78.500 1056.000 1.000
78.520 1066.000 1.000
78.540 1032.000 1.000
78.560 987.000 1.000
78.580 1012.000 1.000
78.600 1014.000 1.000
78.620 1030.000 1.000
78.640 1057.000 1.000
78.660 988.000 1.000
78.680 1009.000 1.000
78.700 1000.000 1.000
78.720 1016.000 1.000
78.740 970.000 1.000
78.760 997.000 1.000
78.780 999.000 1.000
78.800 992.000 1.000
78.820 995.000 1.000
78.840 962.000 1.000
78.860 943.000 1.000
78.880 969.000 1.000
78.900 969.000 1.000
78.920 987.000 1.000
78.940 1007.000 1.000
78.960 1006.000 1.000
78.980 985.000 1.000
79.000 964.000 1.000
79.020 986.000 1.000
79.040 950.000 1.000
79.060 934.000 1.000
79.080 962.000 1.000
79.100 932.000 1.000
79.120 965.000 1.000
79.140 962.000 1.000
79.160 974.000 1.000
79.180 970.000 1.000
79.200 923.000 1.000
79.220 928.000 1.000
79.240 921.000 1.000
79.260 937.000 1.000
79.280 971.000 1.000
79.300 956.000 1.000
79.320 948.000 1.000
79.340 928.000 1.000
79.360 940.000 1.000
79.380 941.000 1.000
79.400 941.000 1.000
79.420 932.000 1.000
79.440 938.000 1.000
79.460 906.000 1.000
79.480 917.000 1.000
79.500 949.000 1.000
79.520 932.000 1.000
79.540 913.000 1.000
79.560 1001.000 1.000
79.580 958.000 1.000
79.600 932.000 1.000
79.620 950.000 1.000
79.640 940.000 1.000
79.660 972.000 1.000
79.680 930.000 1.000
79.700 936.000 1.000
79.720 948.000 1.000
79.740 912.000 1.000
79.760 963.000 1.000
79.780 929.000 1.000
79.800 968.000 1.000
79.820 985.000 1.000
79.840 1004.000 1.000
79.860 947.000 1.000
79.880 959.000 1.000
79.900 988.000 1.000
79.920 996.000 1.000
79.940 992.000 1.000
79.960 970.000 1.000
79.980 938.000 1.000
80.000 1042.000 1.000
80.020 1018.000 1.000
80.040 1028.000 1.000
80.060 1043.000 1.000
80.080 1000.000 1.000
80.100 993.000 1.000
80.120 1019.000 1.000
80.140 1037.000 1.000
80.160 1008.000 1.000
80.180 1013.000 1.000
80.200 1020.000 1.000
80.220 1042.000 1.000
80.240 1036.000 1.000
80.260 1057.000 1.000
80.280 1051.000 1.000
80.300 1018.000 1.000
80.320 1035.000 1.000
80.340 1035.000 1.000
80.360 989.000 1.000
80.380 1054.000 1.000
80.400 1049.000 1.000
80.420 1011.000 1.000
80.440 1010.000 1.000
80.460 991.000 1.000
80.480 970.000 1.000
80.500 972.000 1.000
80.520 980.000 1.000
80.540 989.000 1.000
80.560 1023.000 1.000
80.580 980.000 1.000
80.600 942.000 1.000
80.620 905.000 1.000
80.640 973.000 1.000
80.660 993.000 1.000
80.680 940.000 1.000
80.700 941.000 1.000
80.720 997.000 1.000
80.740 944.000 1.000
80.760 935.000 1.000
80.780 968.000 1.000
80.800 993.000 1.000
80.820 960.000 1.000
80.840 931.000 1.000
80.860 944.000 1.000
80.880 925.000 1.000
80.900 952.000 1.000
80.920 963.000 1.000
80.940 894.000 1.000
80.960 934.000 1.000
80.980 962.000 1.000
81.000 941.000 1.000
81.020 931.000 1.000
81.040 913.000 1.000
81.060 937.000 1.000
81.080 939.000 1.000
81.100 971.000 1.000
81.120 923.000 1.000
81.140 960.000 1.000
81.160 949.000 1.000
81.180 945.000 1.000
81.200 971.000 1.000
81.220 1004.000 1.000
81.240 975.000 1.000
81.260 949.000 1.000
81.280 970.000 1.000
81.300 934.000 1.000
81.320 926.000 1.000
81.340 952.000 1.000
81.360 948.000 1.000
81.380 908.000 1.000
81.400 909.000 1.000
81.420 998.000 1.000
81.440 985.000 1.000
81.460 954.000 1.000
81.480 917.000 1.000
81.500 981.000 1.000
81.520 1001.000 1.000
81.540 1000.000 1.000
81.560 977.000 1.000
81.580 1014.000 1.000
81.600 970.000 1.000
81.620 1048.000 1.000
81.640 1048.000 1.000
81.660 1076.000 1.000
81.680 1047.000 1.000
81.700 1030.000 1.000
81.720 1041.000 1.000
81.740 1074.000 1.000
81.760 1039.000 1.000
81.780 1065.000 1.000
81.800 1066.000 1.000
81.820 1077.000 1.000
81.840 1040.000 1.000
81.860 1035.000 1.000
81.880 1024.000 1.000
81.900 1059.000 1.000
81.920 1059.000 1.000
81.940 1058.000 1.000
81.960 1068.000 1.000
81.980 1039.000 1.000
82.000 1092.000 1.000
82.020 1075.000 1.000
82.040 988.000 1.000
82.060 1051.000 1.000
82.080 1065.000 1.000
82.100 1051.000 1.000
82.120 1018.000 1.000
82.140 1043.000 1.000
82.160 1034.000 1.000
82.180 1057.000 1.000
82.200 1099.000 1.000
82.220 1091.000 1.000
82.240 1085.000 1.000
82.260 1136.000 1.000
82.280 1115.000 1.000
82.300 1083.000 1.000
82.320 1124.000 1.000
82.340 1119.000 1.000
82.360 1091.000 1.000
82.380 1120.000 1.000
82.400 1114.000 1.000
82.420 1145.000 1.000
82.440 1083.000 1.000
82.460 1122.000 1.000
82.480 1108.000 1.000
82.500 1089.000 1.000
82.520 1129.000 1.000
82.540 1123.000 1.000
82.560 1213.000 1.000
82.580 1176.000 1.000
82.600 1190.000 1.000
82.620 1192.000 1.000
82.640 1162.000 1.000
82.660 1200.000 1.000
82.680 1201.000 1.000
82.700 1176.000 1.000
82.720 1194.000 1.000
82.740 1158.000 1.000
82.760 1224.000 1.000
82.780 1192.000 1.000
82.800 1223.000 1.000
82.820 1162.000 1.000
82.840 1209.000 1.000
82.860 1231.000 1.000
82.880 1217.000 1.000
82.900 1210.000 1.000
82.920 1185.000 1.000
82.940 1185.000 1.000
82.960 1167.000 1.000
82.980 1189.000 1.000
83.000 1172.000 1.000
83.020 1225.000 1.000
83.040 1190.000 1.000
83.060 1133.000 1.000
83.080 1163.000 1.000
83.100 1113.000 1.000
83.120 1145.000 1.000
83.140 1093.000 1.000
83.160 1106.000 1.000
83.180 1109.000 1.000
83.200 1133.000 1.000
83.220 1102.000 1.000
83.240 1094.000 1.000
83.260 1094.000 1.000
83.280 1130.000 1.000
83.300 1098.000 1.000
83.320 1123.000 1.000
83.340 1055.000 1.000
83.360 1047.000 1.000
83.380 1103.000 1.000
83.400 1082.000 1.000
83.420 1097.000 1.000
83.440 1091.000 1.000
83.460 1140.000 1.000
83.480 1155.000 1.000
83.500 1141.000 1.000
83.520 1099.000 1.000
83.540 1119.000 1.000
83.560 1166.000 1.000
83.580 1116.000 1.000
83.600 1138.000 1.000
83.620 1117.000 1.000
83.640 1084.000 1.000
83.660 1097.000 1.000
83.680 1115.000 1.000
83.700 1104.000 1.000
83.720 1133.000 1.000
83.740 1101.000 1.000
83.760 1148.000 1.000
83.780 1157.000 1.000
83.800 1144.000 1.000
83.820 1084.000 1.000
83.840 1126.000 1.000
83.860 1106.000 1.000
83.880 1107.000 1.000
83.900 1104.000 1.000
83.920 1109.000 1.000
83.940 1158.000 1.000
83.960 1142.000 1.000
83.980 1153.000 1.000
84.000 1103.000 1.000
84.020 1106.000 1.000
84.040 1111.000 1.000
84.060 1100.000 1.000
84.080 1116.000 1.000
84.100 1145.000 1.000
84.120 1136.000 1.000
84.140 1115.000 1.000
84.160 1116.000 1.000
84.180 1100.000 1.000
84.200 1132.000 1.000
84.220 1124.000 1.000
84.240 1118.000 1.000
84.260 1119.000 1.000
84.280 1184.000 1.000
84.300 1197.000 1.000
84.320 1118.000 1.000
84.340 1126.000 1.000
84.360 1171.000 1.000
84.380 1108.000 1.000
84.400 1102.000 1.000
84.420 1068.000 1.000
84.440 1101.000 1.000
84.460 1143.000 1.000
84.480 1164.000 1.000
84.500 1155.000 1.000
84.520 1141.000 1.000
84.540 1104.000 1.000
84.560 1145.000 1.000
84.580 1162.000 1.000
84.600 1099.000 1.000
84.620 1124.000 1.000
84.640 1108.000 1.000
84.660 1141.000 1.000
84.680 1154.000 1.000
84.700 1162.000 1.000
84.720 1142.000 1.000
84.740 1143.000 1.000
84.760 1198.000 1.000
84.780 1132.000 1.000
84.800 1112.000 1.000
84.820 1132.000 1.000
84.840 1109.000 1.000
84.860 1113.000 1.000
84.880 1073.000 1.000
84.900 1090.000 1.000
84.920 1108.000 1.000
84.940 1114.000 1.000
84.960 1142.000 1.000
84.980 1085.000 1.000
85.000 1119.000 1.000
85.020 1162.000 1.000
85.040 1111.000 1.000
85.060 1076.000 1.000
85.080 1101.000 1.000
85.100 1050.000 1.000
85.120 1044.000 1.000
85.140 1055.000 1.000
85.160 1117.000 1.000
85.180 1044.000 1.000
85.200 1044.000 1.000
85.220 1057.000 1.000
85.240 1041.000 1.000
85.260 1017.000 1.000
85.280 1048.000 1.000
85.300 1045.000 1.000
85.320 1033.000 1.000
85.340 1031.000 1.000
85.360 1044.000 1.000
85.380 1013.000 1.000
85.400 1004.000 1.000
85.420 1071.000 1.000
85.440 997.000 1.000
85.460 1031.000 1.000
85.480 1011.000 1.000
85.500 1005.000 1.000
85.520 1005.000 1.000
85.540 995.000 1.000
85.560 952.000 1.000
85.580 974.000 1.000
85.600 1000.000 1.000
85.620 1047.000 1.000
85.640 1004.000 1.000
85.660 1005.000 1.000
85.680 1109.000 1.000
85.700 1023.000 1.000
85.720 1001.000 1.000
85.740 1004.000 1.000
85.760 1033.000 1.000
85.780 1019.000 1.000
85.800 1004.000 1.000
85.820 1004.000 1.000
85.840 1005.000 1.000
85.860 1002.000 1.000
85.880 1017.000 1.000
85.900 995.000 1.000
85.920 989.000 1.000
85.940 1064.000 1.000
85.960 1061.000 1.000
85.980 1011.000 1.000
86.000 1041.000 1.000
86.020 1032.000 1.000
86.040 1027.000 1.000
86.060 1006.000 1.000
86.080 1000.000 1.000
86.100 990.000 1.000
86.120 988.000 1.000
86.140 1023.000 1.000
86.160 1067.000 1.000
86.180 1073.000 1.000
86.200 1082.000 1.000
86.220 1039.000 1.000
86.240 1042.000 1.000
86.260 1043.000 1.000
86.280 1052.000 1.000
86.300 1049.000 1.000
86.320 1063.000 1.000
86.340 1029.000 1.000
86.360 1019.000 1.000
86.380 1041.000 1.000
86.400 1023.000 1.000
86.420 1100.000 1.000
86.440 1061.000 1.000
86.460 1024.000 1.000
86.480 1054.000 1.000
86.500 1074.000 1.000
86.520 1038.000 1.000
86.540 1109.000 1.000
86.560 1061.000 1.000
86.580 1081.000 1.000
86.600 1053.000 1.000
86.620 1074.000 1.000
86.640 1096.000 1.000
86.660 1065.000 1.000
86.680 1139.000 1.000
86.700 1058.000 1.000
86.720 1120.000 1.000
86.740 1092.000 1.000
86.760 1063.000 1.000
86.780 1065.000 1.000
86.800 1065.000 1.000
86.820 1059.000 1.000
86.840 1143.000 1.000
86.860 1104.000 1.000
86.880 1054.000 1.000
86.900 1078.000 1.000
86.920 1046.000 1.000
86.940 1074.000 1.000
86.960 1073.000 1.000
86.980 1070.000 1.000
87.000 1097.000 1.000
87.020 1111.000 1.000
87.040 1068.000 1.000
87.060 1118.000 1.000
87.080 1039.000 1.000
87.100 1046.000 1.000
87.120 1085.000 1.000
87.140 1089.000 1.000
87.160 1087.000 1.000
87.180 1039.000 1.000
87.200 1100.000 1.000
87.220 1056.000 1.000
87.240 992.000 1.000
87.260 1055.000 1.000
87.280 1069.000 1.000
87.300 1064.000 1.000
87.320 1083.000 1.000
87.340 1055.000 1.000
87.360 998.000 1.000
87.380 1017.000 1.000
87.400 1074.000 1.000
87.420 1073.000 1.000
87.440 1061.000 1.000
87.460 1012.000 1.000
87.480 1106.000 1.000
87.500 1053.000 1.000
87.520 1022.000 1.000
87.540 1030.000 1.000
87.560 1053.000 1.000
87.580 1023.000 1.000
87.600 1050.000 1.000
87.620 983.000 1.000
87.640 980.000 1.000
87.660 1063.000 1.000
87.680 1024.000 1.000
87.700 1043.000 1.000
87.720 1065.000 1.000
87.740 1020.000 1.000
87.760 1024.000 1.000
87.780 1072.000 1.000
87.800 1050.000 1.000
87.820 1021.000 1.000
87.840 977.000 1.000
87.860 1055.000 1.000
87.880 993.000 1.000
87.900 1004.000 1.000
87.920 1057.000 1.000
87.940 1047.000 1.000
87.960 1008.000 1.000
87.980 1044.000 1.000
88.000 1045.000 1.000
88.020 1080.000 1.000
88.040 1100.000 1.000
88.060 1004.000 1.000
88.080 1043.000 1.000
88.100 1075.000 1.000
88.120 1021.000 1.000
88.140 1044.000 1.000
88.160 1018.000 1.000
88.180 1089.000 1.000
88.200 1075.000 1.000
88.220 1016.000 1.000
88.240 1011.000 1.000
88.260 1051.000 1.000
88.280 1057.000 1.000
88.300 1039.000 1.000
88.320 1001.000 1.000
88.340 1051.000 1.000
88.360 1057.000 1.000
88.380 1078.000 1.000
88.400 1013.000 1.000
88.420 1015.000 1.000
88.440 1079.000 1.000
88.460 1083.000 1.000
88.480 1062.000 1.000
88.500 1087.000 1.000
88.520 1025.000 1.000
88.540 1083.000 1.000
88.560 1055.000 1.000
88.580 1038.000 1.000
88.600 1088.000 1.000
88.620 1104.000 1.000
88.640 1101.000 1.000
88.660 1070.000 1.000
88.680 1139.000 1.000
88.700 1129.000 1.000
88.720 1121.000 1.000
88.740 1128.000 1.000
88.760 1130.000 1.000
88.780 1136.000 1.000
88.800 1094.000 1.000
88.820 1103.000 1.000
88.840 1088.000 1.000
88.860 1136.000 1.000
88.880 1154.000 1.000
88.900 1161.000 1.000
88.920 1160.000 1.000
88.940 1142.000 1.000
88.960 1132.000 1.000
88.980 1156.000 1.000
89.000 1172.000 1.000
89.020 1180.000 1.000
89.040 1154.000 1.000
89.060 1217.000 1.000
89.080 1190.000 1.000
89.100 1163.000 1.000
89.120 1224.000 1.000
89.140 1198.000 1.000
89.160 1144.000 1.000
89.180 1175.000 1.000
89.200 1196.000 1.000
89.220 1214.000 1.000
89.240 1174.000 1.000
89.260 1148.000 1.000
89.280 1162.000 1.000
89.300 1172.000 1.000
89.320 1168.000 1.000
89.340 1211.000 1.000
89.360 1182.000 1.000
89.380 1150.000 1.000
89.400 1145.000 1.000
89.420 1191.000 1.000
89.440 1227.000 1.000
89.460 1177.000 1.000
89.480 1280.000 1.000
89.500 1247.000 1.000
89.520 1239.000 1.000
89.540 1269.000 1.000
89.560 1332.000 1.000
89.580 1297.000 1.000
89.600 1332.000 1.000
89.620 1383.000 1.000
89.640 1344.000 1.000
89.660 1359.000 1.000
89.680 1373.000 1.000
89.700 1349.000 1.000
89.720 1441.000 1.000
89.740 1333.000 1.000
89.760 1320.000 1.000
89.780 1353.000 1.000
89.800 1287.000 1.000
89.820 1318.000 1.000
89.840 1347.000 1.000
89.860 1259.000 1.000
89.880 1229.000 1.000
89.900 1248.000 1.000
89.920 1265.000 1.000
89.940 1265.000 1.000
89.960 1265.000 1.000
89.980 1265.000 1.000
90.000 1265.000 1.000
*RAS_INT_END
*RAS_DATA_END
